Longitude,Latitude,Speed,Distance,Time,Acc X,Acc Y,Acc Z,Heading,gyro_x,gyro_y,gyro_z
0.0,0.0,0.0,0.0,18-45-01,-0.2865095,-0.15841463,0.06052053,249.0,0.009574091,0.0010231993,0.05206649
0.0,0.0,0.0,0.0,18-45-01,-0.2865095,-0.15841463,0.06052053,249.0,0.009574091,0.0010231993,0.05206649
0.0,0.0,0.0,0.0,18-45-01,-0.2863617,-0.15570334,0.056883633,249.0,0.009574091,0.0010231993,0.05206649
0.0,0.0,0.0,0.0,18-45-01,-0.2863617,-0.15570334,0.056883633,249.0,0.009574091,0.0010231993,0.05206649
0.0,0.0,0.0,0.0,18-45-01,-0.2863617,-0.15570334,0.056883633,249.0,0.009574091,0.0010231993,0.05206649
0.0,0.0,0.0,0.0,18-45-01,-0.28629303,-0.15706483,0.056111157,249.0,0.009574091,0.0010231993,0.05206649
0.0,0.0,0.0,0.0,18-45-01,-0.28629303,-0.15706483,0.056111157,249.0,0.009574091,0.0010231993,0.05206649
0.0,0.0,0.0,0.0,18-45-01,-0.28599358,-0.1522364,0.048836768,249.0,0.013239282,0.023625214,0.03129707
0.0,0.0,0.0,0.0,18-45-01,-0.28599358,-0.1522364,0.048836768,249.0,0.013239282,0.023625214,0.03129707
0.0,0.0,0.0,0.0,18-45-01,-0.28599358,-0.1522364,0.048836768,249.0,0.013239282,0.023625214,0.03129707
0.0,0.0,0.0,0.0,18-45-01,0.22143745,0.21147498,-0.32510334,249.0,0.013239282,0.023625214,0.03129707
0.0,0.0,0.0,0.0,18-45-01,0.22143745,0.21147498,-0.32510334,249.0,0.013239282,0.023625214,0.03129707
0.0,0.0,0.0,0.0,18-45-01,0.22143745,0.21147498,-0.32510334,249.0,0.013239282,0.023625214,0.03129707
0.0,0.0,0.0,0.0,18-45-01,0.22121716,0.21962292,-0.32439852,249.0,0.013239282,0.023625214,0.03129707
0.0,0.0,0.0,0.0,18-45-01,0.22121716,0.21962292,-0.32439852,249.0,0.013239282,0.023625214,0.03129707
0.0,0.0,0.0,0.0,18-45-01,0.22121716,0.21962292,-0.32439852,249.0,0.013239282,0.023625214,0.03129707
0.0,0.0,0.0,0.0,18-45-01,0.22121716,0.21962292,-0.32439852,249.0,0.013239282,0.023625214,0.03129707
0.0,0.0,0.0,0.0,18-45-01,0.22121716,0.21962292,-0.32439852,249.0,0.013239282,0.023625214,0.03129707
0.0,0.0,0.0,0.0,18-45-01,0.2196827,0.2333424,-0.30117428,249.0,0.013239282,0.023625214,0.03129707
0.0,0.0,0.0,0.0,18-45-01,0.2196827,0.2333424,-0.30117428,249.0,0.013239282,0.023625214,0.03129707
0.0,0.0,0.0,0.0,18-45-01,0.2196827,0.2333424,-0.30117428,249.0,0.013239282,0.023625214,0.03129707
0.0,0.0,0.0,0.0,18-45-01,-0.03668499,-0.11724618,0.08778942,249.0,0.013239282,0.023625214,0.03129707
0.0,0.0,0.0,0.0,18-45-01,-0.03668499,-0.11724618,0.08778942,249.0,0.013239282,0.023625214,0.03129707
0.0,0.0,0.0,0.0,18-45-01,-0.03668499,-0.11724618,0.08778942,249.0,0.013239282,0.023625214,0.03129707
0.0,0.0,0.0,0.0,18-45-01,-0.03668499,-0.11724618,0.08778942,249.0,0.013239282,0.023625214,0.03129707
0.0,0.0,0.0,0.0,18-45-01,-0.03682232,-0.10778876,0.08715135,249.0,0.013239282,0.023625214,0.03129707
0.0,0.0,0.0,0.0,18-45-01,-0.03752041,-0.11636925,0.10337508,249.0,0.04683687,-0.106489085,-0.06033272
0.0,0.0,0.0,0.0,18-45-01,-0.03752041,-0.11636925,0.10337508,249.0,0.04683687,-0.106489085,-0.06033272
0.0,0.0,0.0,0.0,18-45-01,-0.03752041,-0.11636925,0.10337508,249.0,0.04683687,-0.106489085,-0.06033272
0.0,0.0,0.0,0.0,18-45-01,-0.03819561,-0.124779195,0.119717926,249.0,0.04683687,-0.106489085,-0.06033272
0.0,0.0,0.0,0.0,18-45-01,-0.03819561,-0.124779195,0.119717926,249.0,0.04683687,-0.106489085,-0.06033272
0.0,0.0,0.0,0.0,18-45-01,-0.03819561,-0.124779195,0.119717926,249.0,0.04683687,-0.106489085,-0.06033272
0.0,0.0,0.0,0.0,18-45-01,-0.03819561,-0.124779195,0.119717926,249.0,0.04683687,-0.106489085,-0.06033272
0.0,0.0,0.0,0.0,18-45-01,-0.03819561,-0.124779195,0.119717926,249.0,0.04683687,-0.106489085,-0.06033272
0.0,0.0,0.0,0.0,18-45-01,0.06265545,-0.21565855,-0.14486817,249.0,0.04683687,-0.106489085,-0.06033272
0.0,0.0,0.0,0.0,18-45-01,0.06265545,-0.21565855,-0.14486817,249.0,0.04683687,-0.106489085,-0.06033272
0.0,0.0,0.0,0.0,18-45-01,0.06265545,-0.21565855,-0.14486817,249.0,0.04683687,-0.106489085,-0.06033272
0.0,0.0,0.0,0.0,18-45-01,0.062880516,-0.22072943,-0.14709315,249.0,0.04683687,-0.106489085,-0.06033272
0.0,0.0,0.0,0.0,18-45-01,0.062880516,-0.22072943,-0.14709315,249.0,0.04683687,-0.106489085,-0.06033272
0.0,0.0,0.0,0.0,18-45-01,0.062880516,-0.22072943,-0.14709315,249.0,0.04683687,-0.106489085,-0.06033272
0.0,0.0,0.0,0.0,18-45-01,0.062880516,-0.22072943,-0.14709315,249.0,0.04683687,-0.106489085,-0.06033272
0.0,0.0,0.0,0.0,18-45-01,0.06296253,-0.22666495,-0.14635926,248.0,0.04683687,-0.106489085,-0.06033272
0.0,0.0,0.0,0.0,18-45-01,0.06326389,-0.23940724,-0.14628804,249.0,0.04683687,-0.106489085,-0.06033272
0.0,0.0,0.0,0.0,18-45-01,-0.59505844,-0.19137114,0.18767026,249.0,0.04683687,-0.106489085,-0.06033272
0.0,0.0,0.0,0.0,18-45-01,-0.59505844,-0.19137114,0.18767026,249.0,0.04683687,-0.106489085,-0.06033272
0.0,0.0,0.0,0.0,18-45-01,-0.59505844,-0.19137114,0.18767026,249.0,0.04683687,-0.106489085,-0.06033272
0.0,0.0,0.0,0.0,18-45-01,-0.59505844,-0.19137114,0.18767026,249.0,0.04683687,-0.106489085,-0.06033272
0.0,0.0,0.0,0.0,18-45-01,-0.59505844,-0.19137114,0.18767026,249.0,0.04683687,-0.106489085,-0.06033272
0.0,0.0,0.0,0.0,18-45-01,-0.59505844,-0.19137114,0.18767026,249.0,0.04683687,-0.106489085,-0.06033272
0.0,0.0,0.0,0.0,18-45-01,-0.59547997,-0.18951836,0.19510338,249.0,0.04683687,-0.106489085,-0.06033272
0.0,0.0,0.0,0.0,18-45-01,-0.59588814,-0.16756344,0.19281393,249.0,0.01629361,-0.0063071838,0.05084476
0.0,0.0,0.0,0.0,18-45-01,-0.59588814,-0.16756344,0.19281393,249.0,0.01629361,-0.0063071838,0.05084476
0.0,0.0,0.0,0.0,18-45-01,-0.59588814,-0.16756344,0.19281393,249.0,0.01629361,-0.0063071838,0.05084476
0.0,0.0,0.0,0.0,18-45-01,-0.59570026,-0.164298,0.18782297,249.0,0.01629361,-0.0063071838,0.05084476
0.0,0.0,0.0,0.0,18-45-01,-0.59570026,-0.164298,0.18782297,249.0,0.01629361,-0.0063071838,0.05084476
0.0,0.0,0.0,0.0,18-45-01,-0.59570026,-0.164298,0.18782297,249.0,0.01629361,-0.0063071838,0.05084476
0.0,0.0,0.0,0.0,18-45-01,-0.59570026,-0.164298,0.18782297,249.0,0.01629361,-0.0063071838,0.05084476
0.0,0.0,0.0,0.0,18-45-01,-0.59570026,-0.164298,0.18782297,249.0,0.01629361,-0.0063071838,0.05084476
0.0,0.0,0.0,0.0,18-45-02,-0.14894295,-0.15427345,0.020936072,249.0,0.01629361,-0.0063071838,0.05084476
0.0,0.0,0.0,0.0,18-45-02,-0.14894295,-0.15427345,0.020936072,249.0,0.01629361,-0.0063071838,0.05084476
0.0,0.0,0.0,0.0,18-45-02,-0.14894295,-0.15427345,0.020936072,249.0,0.01629361,-0.0063071838,0.05084476
0.0,0.0,0.0,0.0,18-45-02,-0.148489,-0.15000746,0.0107114315,249.0,0.01629361,-0.0063071838,0.05084476
0.0,0.0,0.0,0.0,18-45-02,-0.148489,-0.15000746,0.0107114315,249.0,0.01629361,-0.0063071838,0.05084476
0.0,0.0,0.0,0.0,18-45-02,-0.14847183,-0.15141192,0.010799944,249.0,0.01629361,-0.0063071838,0.05084476
0.0,0.0,0.0,0.0,18-45-02,-0.14847183,-0.15141192,0.010799944,249.0,0.01629361,-0.0063071838,0.05084476
0.0,0.0,0.0,0.0,18-45-02,-0.14847183,-0.15141192,0.010799944,249.0,0.01629361,-0.0063071838,0.05084476
0.0,0.0,0.0,0.0,18-45-02,-0.14766693,-0.1617302,1.9341707E-4,249.0,0.01629361,-0.0063071838,0.05084476
0.0,0.0,0.0,0.0,18-45-02,-0.31972885,0.14049283,-0.30941966,249.0,0.01629361,-0.0063071838,0.05084476
0.0,0.0,0.0,0.0,18-45-02,-0.31972885,0.14049283,-0.30941966,249.0,0.01629361,-0.0063071838,0.05084476
0.0,0.0,0.0,0.0,18-45-02,-0.31972885,0.14049283,-0.30941966,249.0,0.01629361,-0.0063071838,0.05084476
0.0,0.0,0.0,0.0,18-45-02,-0.31972885,0.14049283,-0.30941966,249.0,0.01629361,-0.0063071838,0.05084476
0.0,0.0,0.0,0.0,18-45-02,-0.31972885,0.14049283,-0.30941966,249.0,-0.124205396,0.015683964,0.06367293
0.0,0.0,0.0,0.0,18-45-02,-0.31982708,0.14722492,-0.31031677,249.0,-0.124205396,0.015683964,0.06367293
0.0,0.0,0.0,0.0,18-45-02,-0.31982708,0.14722492,-0.31031677,249.0,-0.124205396,0.015683964,0.06367293
0.0,0.0,0.0,0.0,18-45-02,-0.3194523,0.1587096,-0.3218629,249.0,-0.124205396,0.015683964,0.06367293
0.0,0.0,0.0,0.0,18-45-02,-0.3194523,0.1587096,-0.3218629,249.0,-0.124205396,0.015683964,0.06367293
0.0,0.0,0.0,0.0,18-45-02,-0.3194523,0.1587096,-0.3218629,249.0,-0.124205396,0.015683964,0.06367293
0.0,0.0,0.0,0.0,18-45-02,-0.31938648,0.16040194,-0.3234904,249.0,-0.124205396,0.015683964,0.06367293
0.0,0.0,0.0,0.0,18-45-02,-0.31938648,0.16040194,-0.3234904,249.0,-0.124205396,0.015683964,0.06367293
0.0,0.0,0.0,0.0,18-45-02,-0.31938648,0.16040194,-0.3234904,249.0,-0.124205396,0.015683964,0.06367293
0.0,0.0,0.0,0.0,18-45-02,-0.31938648,0.16040194,-0.3234904,249.0,-0.124205396,0.015683964,0.06367293
0.0,0.0,0.0,0.0,18-45-02,-0.31938648,0.16040194,-0.3234904,249.0,-0.124205396,0.015683964,0.06367293
0.0,0.0,0.0,0.0,18-45-02,0.4449196,-0.008584872,0.13183063,249.0,-0.124205396,0.015683964,0.06367293
0.0,0.0,0.0,0.0,18-45-02,0.44507313,-0.010617107,0.12992328,249.0,-0.124205396,0.015683964,0.06367293
0.0,0.0,0.0,0.0,18-45-02,0.44507313,-0.010617107,0.12992328,249.0,-0.124205396,0.015683964,0.06367293
0.0,0.0,0.0,0.0,18-45-02,0.44518948,-0.00877893,0.1274271,249.0,-0.124205396,0.015683964,0.06367293
0.0,0.0,0.0,0.0,18-45-02,0.44518948,-0.00877893,0.1274271,249.0,-0.124205396,0.015683964,0.06367293
0.0,0.0,0.0,0.0,18-45-02,0.44549847,-0.0040688515,0.12033808,249.0,-0.124205396,0.015683964,0.06367293
0.0,0.0,0.0,0.0,18-45-02,0.44549847,-0.0040688515,0.12033808,249.0,-0.124205396,0.015683964,0.06367293
0.0,0.0,0.0,0.0,18-45-02,0.44549847,-0.0040688515,0.12033808,249.0,-0.124205396,0.015683964,0.06367293
0.0,0.0,0.0,0.0,18-45-02,0.44575214,-0.014416799,0.11974567,249.0,-0.124205396,0.015683964,0.06367293
0.0,0.0,0.0,0.0,18-45-02,-0.37023544,0.027371258,0.45830327,249.0,0.010184957,0.029733866,-0.0023005186
0.0,0.0,0.0,0.0,18-45-02,-0.37023544,0.027371258,0.45830327,249.0,0.010184957,0.029733866,-0.0023005186
0.0,0.0,0.0,0.0,18-45-02,-0.37023544,0.027371258,0.45830327,249.0,0.010184957,0.029733866,-0.0023005186
0.0,0.0,0.0,0.0,18-45-02,-0.37023544,0.027371258,0.45830327,249.0,0.010184957,0.029733866,-0.0023005186
0.0,0.0,0.0,0.0,18-45-02,-0.3698473,0.031442747,0.45029444,249.0,0.010184957,0.029733866,-0.0023005186
0.0,0.0,0.0,0.0,18-45-02,-0.3698473,0.031442747,0.45029444,249.0,0.010184957,0.029733866,-0.0023005186
0.0,0.0,0.0,0.0,18-45-02,-0.3698473,0.031442747,0.45029444,249.0,0.010184957,0.029733866,-0.0023005186
0.0,0.0,0.0,0.0,18-45-02,-0.36884212,0.03633432,0.4322284,249.0,0.010184957,0.029733866,-0.0023005186
0.0,0.0,0.0,0.0,18-45-02,-0.36884212,0.03633432,0.4322284,249.0,0.010184957,0.029733866,-0.0023005186
0.0,0.0,0.0,0.0,18-45-02,-0.36884212,0.03633432,0.4322284,249.0,0.010184957,0.029733866,-0.0023005186
0.0,0.0,0.0,0.0,18-45-02,-0.36871052,0.05030805,0.42537445,249.0,0.010184957,0.029733866,-0.0023005186
0.0,0.0,0.0,0.0,18-45-02,-0.36871052,0.05030805,0.42537445,249.0,0.010184957,0.029733866,-0.0023005186
0.0,0.0,0.0,0.0,18-45-02,-0.36871052,0.05030805,0.42537445,249.0,0.010184957,0.029733866,-0.0023005186
0.0,0.0,0.0,0.0,18-45-02,-0.36871052,0.05030805,0.42537445,249.0,0.010184957,0.029733866,-0.0023005186
0.0,0.0,0.0,0.0,18-45-02,-0.36871052,0.05030805,0.42537445,249.0,0.010184957,0.029733866,-0.0023005186
0.0,0.0,0.0,0.0,18-45-02,0.27582645,0.15538171,0.35292423,249.0,0.010184957,0.029733866,-0.0023005186
0.0,0.0,0.0,0.0,18-45-02,0.27582645,0.15538171,0.35292423,249.0,0.010184957,0.029733866,-0.0023005186
0.0,0.0,0.0,0.0,18-45-02,0.27582645,0.15538171,0.35292423,249.0,0.010184957,0.029733866,-0.0023005186
0.0,0.0,0.0,0.0,18-45-02,0.27557755,0.1698023,0.3535567,249.0,0.010184957,0.029733866,-0.0023005186
0.0,0.0,0.0,0.0,18-45-02,0.27557755,0.1698023,0.3535567,249.0,0.010184957,0.029733866,-0.0023005186
0.0,0.0,0.0,0.0,18-45-02,0.27479267,0.1851384,0.36249113,250.0,0.010184957,0.029733866,-0.0023005186
0.0,0.0,0.0,0.0,18-45-02,0.27479267,0.1851384,0.36249113,250.0,0.010184957,0.029733866,-0.0023005186
0.0,0.0,0.0,0.0,18-45-02,0.27479267,0.1851384,0.36249113,250.0,0.010184957,0.029733866,-0.0023005186
0.0,0.0,0.0,0.0,18-45-02,0.533638,0.009207174,0.56263816,250.0,-0.07228185,0.0052992557,0.045957837
0.0,0.0,0.0,0.0,18-45-02,0.533638,0.009207174,0.56263816,250.0,-0.07228185,0.0052992557,0.045957837
0.0,0.0,0.0,0.0,18-45-02,0.533638,0.009207174,0.56263816,250.0,-0.07228185,0.0052992557,0.045957837
0.0,0.0,0.0,0.0,18-45-02,0.534009,-0.009168439,0.5599839,250.0,-0.07228185,0.0052992557,0.045957837
0.0,0.0,0.0,0.0,18-45-02,0.534009,-0.009168439,0.5599839,250.0,-0.07228185,0.0052992557,0.045957837
0.0,0.0,0.0,0.0,18-45-02,0.534009,-0.009168439,0.5599839,250.0,-0.07228185,0.0052992557,0.045957837
0.0,0.0,0.0,0.0,18-45-02,0.534009,-0.009168439,0.5599839,250.0,-0.07228185,0.0052992557,0.045957837
0.0,0.0,0.0,0.0,18-45-02,0.534009,-0.009168439,0.5599839,250.0,-0.07228185,0.0052992557,0.045957837
0.0,0.0,0.0,0.0,18-45-02,0.5365133,-0.049823403,0.5311303,249.0,-0.07228185,0.0052992557,0.045957837
0.0,0.0,0.0,0.0,18-45-02,0.5365133,-0.049823403,0.5311303,249.0,-0.07228185,0.0052992557,0.045957837
0.0,0.0,0.0,0.0,18-45-02,0.5365133,-0.049823403,0.5311303,249.0,-0.07228185,0.0052992557,0.045957837
0.0,0.0,0.0,0.0,18-45-02,0.5376797,-0.06333272,0.5174598,249.0,-0.07228185,0.0052992557,0.045957837
0.0,0.0,0.0,0.0,18-45-02,0.5376797,-0.06333272,0.5174598,249.0,-0.07228185,0.0052992557,0.045957837
0.0,0.0,0.0,0.0,18-45-02,0.5376797,-0.06333272,0.5174598,249.0,-0.07228185,0.0052992557,0.045957837
0.0,0.0,0.0,0.0,18-45-02,0.5376797,-0.06333272,0.5174598,249.0,-0.07228185,0.0052992557,0.045957837
0.0,0.0,0.0,0.0,18-45-02,-0.45962238,0.13634655,-0.041354716,249.0,-0.07228185,0.0052992557,0.045957837
0.0,0.0,0.0,0.0,18-45-02,-0.45963764,0.13475183,-0.04073578,249.0,-0.07228185,0.0052992557,0.045957837
0.0,0.0,0.0,0.0,18-45-02,-0.45963764,0.13475183,-0.04073578,249.0,-0.07228185,0.0052992557,0.045957837
0.0,0.0,0.0,0.0,18-45-02,-0.45915318,0.13753678,-0.048162937,249.0,-0.07228185,0.0052992557,0.045957837
0.0,0.0,0.0,0.0,18-45-02,-0.45915318,0.13753678,-0.048162937,249.0,-0.07228185,0.0052992557,0.045957837
0.0,0.0,0.0,0.0,18-45-02,-0.45915318,0.13753678,-0.048162937,249.0,-0.07228185,0.0052992557,0.045957837
0.0,0.0,0.0,0.0,18-45-02,-0.45838165,0.13075048,-0.057201505,250.0,-0.14130963,0.046227228,-0.080491275
0.0,0.0,0.0,0.0,18-45-02,-0.45838165,0.13075048,-0.057201505,250.0,-0.14130963,0.046227228,-0.080491275
0.0,0.0,0.0,0.0,18-45-02,-0.45838165,0.13075048,-0.057201505,250.0,-0.14130963,0.046227228,-0.080491275
0.0,0.0,0.0,0.0,18-45-02,-0.7041712,0.09176271,1.1363297,250.0,-0.14130963,0.046227228,-0.080491275
0.0,0.0,0.0,0.0,18-45-02,-0.7041712,0.09176271,1.1363297,250.0,-0.14130963,0.046227228,-0.080491275
0.0,0.0,0.0,0.0,18-45-02,-0.7041712,0.09176271,1.1363297,250.0,-0.14130963,0.046227228,-0.080491275
0.0,0.0,0.0,0.0,18-45-02,-0.7041807,0.10825148,1.1318327,250.0,-0.14130963,0.046227228,-0.080491275
0.0,0.0,0.0,0.0,18-45-02,-0.7041807,0.10825148,1.1318327,250.0,-0.14130963,0.046227228,-0.080491275
0.0,0.0,0.0,0.0,18-45-02,-0.7041807,0.10825148,1.1318327,250.0,-0.14130963,0.046227228,-0.080491275
0.0,0.0,0.0,0.0,18-45-02,-0.7041807,0.10825148,1.1318327,250.0,-0.14130963,0.046227228,-0.080491275
0.0,0.0,0.0,0.0,18-45-02,-0.7041807,0.10825148,1.1318327,250.0,-0.14130963,0.046227228,-0.080491275
0.0,0.0,0.0,0.0,18-45-02,-0.7032099,0.14198862,1.111037,250.0,-0.14130963,0.046227228,-0.080491275
0.0,0.0,0.0,0.0,18-45-02,-0.7032099,0.14198862,1.111037,250.0,-0.14130963,0.046227228,-0.080491275
0.0,0.0,0.0,0.0,18-45-02,-0.7032099,0.14198862,1.111037,250.0,-0.14130963,0.046227228,-0.080491275
0.0,0.0,0.0,0.0,18-45-02,-0.70335674,0.1626541,1.1090524,250.0,-0.14130963,0.046227228,-0.080491275
0.0,0.0,0.0,0.0,18-45-02,-0.70335674,0.1626541,1.1090524,250.0,-0.14130963,0.046227228,-0.080491275
0.0,0.0,0.0,0.0,18-45-02,-0.70335674,0.1626541,1.1090524,250.0,-0.14130963,0.046227228,-0.080491275
0.0,0.0,0.0,0.0,18-45-02,-0.70335674,0.1626541,1.1090524,250.0,-0.14130963,0.046227228,-0.080491275
0.0,0.0,0.0,0.0,18-45-02,0.52297306,0.2635293,-0.14350855,249.0,-0.14130963,0.046227228,-0.080491275
0.0,0.0,0.0,0.0,18-45-02,0.5233183,0.27566206,-0.14956617,249.0,-0.14130963,0.046227228,-0.080491275
0.0,0.0,0.0,0.0,18-45-02,0.5233183,0.27566206,-0.14956617,249.0,-0.14130963,0.046227228,-0.080491275
0.0,0.0,0.0,0.0,18-45-02,0.5233183,0.27566206,-0.14956617,249.0,-0.14130963,0.046227228,-0.080491275
0.0,0.0,0.0,0.0,18-45-02,0.5243006,0.28277496,-0.16294897,249.0,-0.0680058,0.030955598,0.07955543
0.0,0.0,0.0,0.0,18-45-02,0.5243006,0.28277496,-0.16294897,249.0,-0.0680058,0.030955598,0.07955543
0.0,0.0,0.0,0.0,18-45-02,0.52458096,0.3045509,-0.16879892,249.0,-0.0680058,0.030955598,0.07955543
0.0,0.0,0.0,0.0,18-45-02,0.52458096,0.3045509,-0.16879892,249.0,-0.0680058,0.030955598,0.07955543
0.0,0.0,0.0,0.0,18-45-02,0.52458096,0.3045509,-0.16879892,249.0,-0.0680058,0.030955598,0.07955543
0.0,0.0,0.0,0.0,18-45-02,0.18201351,-0.34691763,0.49880284,250.0,-0.0680058,0.030955598,0.07955543
0.0,0.0,0.0,0.0,18-45-02,0.18201351,-0.34691763,0.49880284,250.0,-0.0680058,0.030955598,0.07955543
0.0,0.0,0.0,0.0,18-45-02,0.18201351,-0.34691763,0.49880284,250.0,-0.0680058,0.030955598,0.07955543
0.0,0.0,0.0,0.0,18-45-02,0.18273926,-0.32263455,0.48997045,250.0,-0.0680058,0.030955598,0.07955543
0.0,0.0,0.0,0.0,18-45-02,0.18273926,-0.32263455,0.48997045,250.0,-0.0680058,0.030955598,0.07955543
0.0,0.0,0.0,0.0,18-45-02,0.18273926,-0.32263455,0.48997045,250.0,-0.0680058,0.030955598,0.07955543
0.0,0.0,0.0,0.0,18-45-02,0.18273926,-0.32263455,0.48997045,250.0,-0.0680058,0.030955598,0.07955543
0.0,0.0,0.0,0.0,18-45-02,0.18273926,-0.32263455,0.48997045,250.0,-0.0680058,0.030955598,0.07955543
0.0,0.0,0.0,0.0,18-45-02,0.18335629,-0.2917782,0.4836496,250.0,-0.0680058,0.030955598,0.07955543
0.0,0.0,0.0,0.0,18-45-02,0.18335629,-0.2917782,0.4836496,250.0,-0.0680058,0.030955598,0.07955543
0.0,0.0,0.0,0.0,18-45-02,0.18335629,-0.2917782,0.4836496,250.0,-0.0680058,0.030955598,0.07955543
0.0,0.0,0.0,0.0,18-45-02,0.1842413,-0.28137812,0.47355485,250.0,-0.0680058,0.030955598,0.07955543
0.0,0.0,0.0,0.0,18-45-02,0.1842413,-0.28137812,0.47355485,250.0,-0.0680058,0.030955598,0.07955543
0.0,0.0,0.0,0.0,18-45-03,-0.097738266,-0.055737443,0.034814775,250.0,-0.0680058,0.030955598,0.07955543
0.0,0.0,0.0,0.0,18-45-03,-0.097738266,-0.055737443,0.034814775,250.0,-0.0680058,0.030955598,0.07955543
0.0,0.0,0.0,0.0,18-45-03,-0.097738266,-0.055737443,0.034814775,250.0,-0.0680058,0.030955598,0.07955543
0.0,0.0,0.0,0.0,18-45-03,-0.096105576,-0.03741225,0.017098963,250.0,-0.0014214833,0.15190692,0.074668504
0.0,0.0,0.0,0.0,18-45-03,-0.096105576,-0.03741225,0.017098963,250.0,-0.0014214833,0.15190692,0.074668504
0.0,0.0,0.0,0.0,18-45-03,-0.096105576,-0.03741225,0.017098963,250.0,-0.0014214833,0.15190692,0.074668504
0.0,0.0,0.0,0.0,18-45-03,-0.09407139,-0.025055453,-0.0050086975,250.0,-0.0014214833,0.15190692,0.074668504
0.0,0.0,0.0,0.0,18-45-03,-0.09407139,-0.025055453,-0.0050086975,250.0,-0.0014214833,0.15190692,0.074668504
0.0,0.0,0.0,0.0,18-45-03,-0.092725754,-0.021698691,-0.019887447,250.0,-0.0014214833,0.15190692,0.074668504
0.0,0.0,0.0,0.0,18-45-03,-0.092725754,-0.021698691,-0.019887447,250.0,-0.0014214833,0.15190692,0.074668504
0.0,0.0,0.0,0.0,18-45-03,-0.092725754,-0.021698691,-0.019887447,250.0,-0.0014214833,0.15190692,0.074668504
0.0,0.0,0.0,0.0,18-45-03,-0.40045547,-0.3460018,0.73782974,250.0,-0.0014214833,0.15190692,0.074668504
0.0,0.0,0.0,0.0,18-45-03,-0.40045547,-0.3460018,0.73782974,250.0,-0.0014214833,0.15190692,0.074668504
0.0,0.0,0.0,0.0,18-45-03,-0.40045547,-0.3460018,0.73782974,250.0,-0.0014214833,0.15190692,0.074668504
0.0,0.0,0.0,0.0,18-45-03,-0.39931393,-0.33883354,0.7260707,250.0,-0.0014214833,0.15190692,0.074668504
0.0,0.0,0.0,0.0,18-45-03,-0.39931393,-0.33883354,0.7260707,250.0,-0.0014214833,0.15190692,0.074668504
0.0,0.0,0.0,0.0,18-45-03,-0.39931393,-0.33883354,0.7260707,250.0,-0.0014214833,0.15190692,0.074668504
0.0,0.0,0.0,0.0,18-45-03,-0.39931393,-0.33883354,0.7260707,250.0,-0.0014214833,0.15190692,0.074668504
0.0,0.0,0.0,0.0,18-45-03,-0.39931393,-0.33883354,0.7260707,250.0,-0.0014214833,0.15190692,0.074668504
0.0,0.0,0.0,0.0,18-45-03,-0.4003029,-0.3282712,0.7383485,250.0,-0.0014214833,0.15190692,0.074668504
0.0,0.0,0.0,0.0,18-45-03,-0.4003029,-0.3282712,0.7383485,250.0,-0.0014214833,0.15190692,0.074668504
0.0,0.0,0.0,0.0,18-45-03,-0.4003029,-0.3282712,0.7383485,250.0,-0.0014214833,0.15190692,0.074668504
0.0,0.0,0.0,0.0,18-45-03,-0.39852428,-0.33335248,0.71808517,250.0,-0.0014214833,0.15190692,0.074668504
0.0,0.0,0.0,0.0,18-45-03,-0.39852428,-0.33335248,0.71808517,250.0,-0.0014214833,0.15190692,0.074668504
0.0,0.0,0.0,0.0,18-45-03,-0.39852428,-0.33335248,0.71808517,250.0,-0.01608225,0.019960022,-0.1379126
0.0,0.0,0.0,0.0,18-45-03,0.38040733,0.09660766,0.11577338,250.0,-0.01608225,0.019960022,-0.1379126
0.0,0.0,0.0,0.0,18-45-03,0.38040733,0.09660766,0.11577338,250.0,-0.01608225,0.019960022,-0.1379126
0.0,0.0,0.0,0.0,18-45-03,0.38019943,0.066988625,0.11515361,250.0,-0.01608225,0.019960022,-0.1379126
0.0,0.0,0.0,0.0,18-45-03,0.38019943,0.066988625,0.11515361,250.0,-0.01608225,0.019960022,-0.1379126
0.0,0.0,0.0,0.0,18-45-03,0.38019943,0.066988625,0.11515361,250.0,-0.01608225,0.019960022,-0.1379126
0.0,0.0,0.0,0.0,18-45-03,0.38019943,0.066988625,0.11515361,250.0,-0.01608225,0.019960022,-0.1379126
0.0,0.0,0.0,0.0,18-45-03,0.38019943,0.066988625,0.11515361,250.0,-0.01608225,0.019960022,-0.1379126
0.0,0.0,0.0,0.0,18-45-03,0.38056087,0.08771942,0.113096654,251.0,-0.01608225,0.019960022,-0.1379126
0.0,0.0,0.0,0.0,18-45-03,0.38056087,0.08771942,0.113096654,251.0,-0.01608225,0.019960022,-0.1379126
0.0,0.0,0.0,0.0,18-45-03,0.38056087,0.08771942,0.113096654,251.0,-0.01608225,0.019960022,-0.1379126
0.0,0.0,0.0,0.0,18-45-03,0.38046932,0.10387985,0.11584526,251.0,-0.01608225,0.019960022,-0.1379126
0.0,0.0,0.0,0.0,18-45-03,0.38046932,0.10387985,0.11584526,251.0,-0.01608225,0.019960022,-0.1379126
0.0,0.0,0.0,0.0,18-45-03,0.38046932,0.10387985,0.11584526,251.0,-0.01608225,0.019960022,-0.1379126
0.0,0.0,0.0,0.0,18-45-03,0.3068838,0.08310382,0.27435577,251.0,-0.01608225,0.019960022,-0.1379126
0.0,0.0,0.0,0.0,18-45-03,0.3068838,0.08310382,0.27435577,251.0,-0.01608225,0.019960022,-0.1379126
0.0,0.0,0.0,0.0,18-45-03,0.3068838,0.08310382,0.27435577,251.0,-0.01608225,0.019960022,-0.1379126
0.0,0.0,0.0,0.0,18-45-03,0.3068838,0.08310382,0.27435577,251.0,-0.01608225,0.019960022,-0.1379126
0.0,0.0,0.0,0.0,18-45-03,0.306921,0.091164514,0.27509928,251.0,-0.01608225,0.019960022,-0.1379126
0.0,0.0,0.0,0.0,18-45-03,0.30673218,0.105390474,0.27937406,251.0,-0.01608225,0.019960022,-0.1379126
0.0,0.0,0.0,0.0,18-45-03,0.30673218,0.105390474,0.27937406,251.0,-0.01608225,0.019960022,-0.1379126
0.0,0.0,0.0,0.0,18-45-03,0.30673218,0.105390474,0.27937406,251.0,-0.01608225,0.019960022,-0.1379126
0.0,0.0,0.0,0.0,18-45-03,0.30687714,0.13583456,0.28327566,251.0,0.11158858,0.065164044,0.22005443
0.0,0.0,0.0,0.0,18-45-03,0.30687714,0.13583456,0.28327566,251.0,0.11158858,0.065164044,0.22005443
0.0,0.0,0.0,0.0,18-45-03,0.34267235,-0.026265413,-0.40475005,251.0,0.11158858,0.065164044,0.22005443
0.0,0.0,0.0,0.0,18-45-03,0.34267235,-0.026265413,-0.40475005,251.0,0.11158858,0.065164044,0.22005443
0.0,0.0,0.0,0.0,18-45-03,0.34267235,-0.026265413,-0.40475005,251.0,0.11158858,0.065164044,0.22005443
0.0,0.0,0.0,0.0,18-45-03,0.3456669,0.05588387,-0.41325206,251.0,0.11158858,0.065164044,0.22005443
0.0,0.0,0.0,0.0,18-45-03,0.3456669,0.05588387,-0.41325206,251.0,0.11158858,0.065164044,0.22005443
0.0,0.0,0.0,0.0,18-45-03,0.3456669,0.05588387,-0.41325206,251.0,0.11158858,0.065164044,0.22005443
0.0,0.0,0.0,0.0,18-45-03,0.3472519,0.09273039,-0.41706747,251.0,0.11158858,0.065164044,0.22005443
0.0,0.0,0.0,0.0,18-45-03,0.3472519,0.09273039,-0.41706747,251.0,0.11158858,0.065164044,0.22005443
0.0,0.0,0.0,0.0,18-45-03,0.3472519,0.09273039,-0.41706747,251.0,0.11158858,0.065164044,0.22005443
0.0,0.0,0.0,0.0,18-45-03,0.3472519,0.09273039,-0.41706747,251.0,0.11158858,0.065164044,0.22005443
0.0,0.0,0.0,0.0,18-45-03,0.3472519,0.09273039,-0.41706747,251.0,0.11158858,0.065164044,0.22005443
0.0,0.0,0.0,0.0,18-45-03,-0.44720173,-0.3918847,0.18115968,251.0,0.11158858,0.065164044,0.22005443
0.0,0.0,0.0,0.0,18-45-03,-0.44720173,-0.3918847,0.18115968,251.0,0.11158858,0.065164044,0.22005443
0.0,0.0,0.0,0.0,18-45-03,-0.44720173,-0.3918847,0.18115968,251.0,0.11158858,0.065164044,0.22005443
0.0,0.0,0.0,0.0,18-45-03,-0.4454136,-0.35348192,0.17952448,251.0,0.11158858,0.065164044,0.22005443
0.0,0.0,0.0,0.0,18-45-03,-0.4454136,-0.35348192,0.17952448,251.0,0.11158858,0.065164044,0.22005443
0.0,0.0,0.0,0.0,18-45-03,-0.4454136,-0.35348192,0.17952448,251.0,0.11158858,0.065164044,0.22005443
0.0,0.0,0.0,0.0,18-45-03,-0.4416933,-0.32908997,0.15225905,251.0,0.11158858,0.065164044,0.22005443
0.0,0.0,0.0,0.0,18-45-03,-0.4416933,-0.32908997,0.15225905,251.0,0.11158858,0.065164044,0.22005443
0.0,0.0,0.0,0.0,18-45-03,-0.4391203,-0.33253324,0.12425822,251.0,0.08104533,0.15496124,-0.035898104
0.0,0.0,0.0,0.0,18-45-03,-0.4391203,-0.33253324,0.12425822,251.0,0.08104533,0.15496124,-0.035898104
0.0,0.0,0.0,0.0,18-45-03,-0.4391203,-0.33253324,0.12425822,251.0,0.08104533,0.15496124,-0.035898104
0.0,0.0,0.0,0.0,18-45-03,-0.43651676,-0.3401814,0.094938874,251.0,0.08104533,0.15496124,-0.035898104
0.0,0.0,0.0,0.0,18-45-03,-0.43651676,-0.3401814,0.094938874,251.0,0.08104533,0.15496124,-0.035898104
0.0,0.0,0.0,0.0,18-45-03,0.59757996,0.1303266,-0.7843836,251.0,0.08104533,0.15496124,-0.035898104
0.0,0.0,0.0,0.0,18-45-03,0.59757996,0.1303266,-0.7843836,251.0,0.08104533,0.15496124,-0.035898104
0.0,0.0,0.0,0.0,18-45-03,0.59757996,0.1303266,-0.7843836,251.0,0.08104533,0.15496124,-0.035898104
0.0,0.0,0.0,0.0,18-45-03,0.60015774,0.08166546,-0.827946,251.0,0.08104533,0.15496124,-0.035898104
0.0,0.0,0.0,0.0,18-45-03,0.60015774,0.08166546,-0.827946,251.0,0.08104533,0.15496124,-0.035898104
0.0,0.0,0.0,0.0,18-45-03,0.60015774,0.08166546,-0.827946,251.0,0.08104533,0.15496124,-0.035898104
0.0,0.0,0.0,0.0,18-45-03,0.6026516,0.0683274,-0.85530406,251.0,0.08104533,0.15496124,-0.035898104
0.0,0.0,0.0,0.0,18-45-03,0.6026516,0.0683274,-0.85530406,251.0,0.08104533,0.15496124,-0.035898104
0.0,0.0,0.0,0.0,18-45-03,0.6026516,0.0683274,-0.85530406,251.0,0.08104533,0.15496124,-0.035898104
0.0,0.0,0.0,0.0,18-45-03,0.6026516,0.0683274,-0.85530406,251.0,0.08104533,0.15496124,-0.035898104
0.0,0.0,0.0,0.0,18-45-03,0.6026516,0.0683274,-0.85530406,251.0,0.08104533,0.15496124,-0.035898104
0.0,0.0,0.0,0.0,18-45-03,-0.0900259,0.2495836,-0.34585285,251.0,0.08104533,0.15496124,-0.035898104
0.0,0.0,0.0,0.0,18-45-03,-0.0900259,0.2495836,-0.34585285,251.0,0.08104533,0.15496124,-0.035898104
0.0,0.0,0.0,0.0,18-45-03,-0.0900259,0.2495836,-0.34585285,251.0,0.08104533,0.15496124,-0.035898104
0.0,0.0,0.0,0.0,18-45-03,-0.08320999,0.21361753,-0.4090705,250.0,0.08104533,0.15496124,-0.035898104
0.0,0.0,0.0,0.0,18-45-03,-0.08320999,0.21361753,-0.4090705,250.0,0.08104533,0.15496124,-0.035898104
0.0,0.0,0.0,0.0,18-45-03,-0.08320999,0.21361753,-0.4090705,250.0,0.08104533,0.15496124,-0.035898104
0.0,0.0,0.0,0.0,18-45-03,-0.07630253,0.1982832,-0.46452188,250.0,0.07493667,0.2734691,-0.0065765753
0.0,0.0,0.0,0.0,18-45-03,-0.07630253,0.1982832,-0.46452188,250.0,0.07493667,0.2734691,-0.0065765753
0.0,0.0,0.0,0.0,18-45-03,-0.068470955,0.19666904,-0.5212717,250.0,0.07493667,0.2734691,-0.0065765753
0.0,0.0,0.0,0.0,18-45-03,-0.059797287,0.1962809,-0.5812007,250.0,0.07493667,0.2734691,-0.0065765753
0.0,0.0,0.0,0.0,18-45-03,-0.059797287,0.1962809,-0.5812007,250.0,0.07493667,0.2734691,-0.0065765753
0.0,0.0,0.0,0.0,18-45-03,-0.059797287,0.1962809,-0.5812007,250.0,0.07493667,0.2734691,-0.0065765753
0.0,0.0,0.0,0.0,18-45-03,-0.059797287,0.1962809,-0.5812007,250.0,0.07493667,0.2734691,-0.0065765753
0.0,0.0,0.0,0.0,18-45-03,0.10672951,0.18445465,-0.39281213,250.0,0.07493667,0.2734691,-0.0065765753
0.0,0.0,0.0,0.0,18-45-03,0.10672951,0.18445465,-0.39281213,250.0,0.07493667,0.2734691,-0.0065765753
0.0,0.0,0.0,0.0,18-45-03,0.10672951,0.18445465,-0.39281213,250.0,0.07493667,0.2734691,-0.0065765753
0.0,0.0,0.0,0.0,18-45-03,0.12724686,0.17376506,-0.5209609,250.0,0.07493667,0.2734691,-0.0065765753
0.0,0.0,0.0,0.0,18-45-03,0.12724686,0.17376506,-0.5209609,250.0,0.07493667,0.2734691,-0.0065765753
0.0,0.0,0.0,0.0,18-45-03,0.12724686,0.17376506,-0.5209609,250.0,0.07493667,0.2734691,-0.0065765753
0.0,0.0,0.0,0.0,18-45-03,0.14279556,0.16248819,-0.6120013,249.0,0.07493667,0.2734691,-0.0065765753
0.0,0.0,0.0,0.0,18-45-03,0.14279556,0.16248819,-0.6120013,249.0,0.07493667,0.2734691,-0.0065765753
0.0,0.0,0.0,0.0,18-45-03,0.14279556,0.16248819,-0.6120013,249.0,0.07493667,0.2734691,-0.0065765753
0.0,0.0,0.0,0.0,18-45-03,0.14279556,0.16248819,-0.6120013,249.0,0.07493667,0.2734691,-0.0065765753
0.0,0.0,0.0,0.0,18-45-03,0.14279556,0.16248819,-0.6120013,249.0,0.07493667,0.2734691,-0.0065765753
0.0,0.0,0.0,0.0,18-45-03,-0.033083916,-0.3242443,-0.7057929,249.0,0.07493667,0.2734691,-0.0065765753
0.0,0.0,0.0,0.0,18-45-03,-0.033083916,-0.33740422,-0.784276,249.0,0.119529836,0.568517,-0.10003895
0.0,0.0,0.0,0.0,18-45-03,-0.017834663,-0.33740422,-0.784276,249.0,0.119529836,0.568517,-0.10003895
0.0,0.0,0.0,0.0,18-45-03,-0.017834663,-0.33740422,-0.784276,249.0,0.119529836,0.568517,-0.10003895
0.0,0.0,0.0,0.0,18-45-03,-0.017834663,-0.33740422,-0.784276,249.0,0.119529836,0.568517,-0.10003895
0.0,0.0,0.0,0.0,18-45-03,0.0037212372,-0.36213067,-0.89034617,249.0,0.119529836,0.568517,-0.10003895
0.0,0.0,0.0,0.0,18-45-03,0.0037212372,-0.36213067,-0.89034617,249.0,0.119529836,0.568517,-0.10003895
0.0,0.0,0.0,0.0,18-45-03,0.0037212372,-0.36213067,-0.89034617,249.0,0.119529836,0.568517,-0.10003895
0.0,0.0,0.0,0.0,18-45-03,0.022250175,-0.3823535,-0.97683513,249.0,0.119529836,0.568517,-0.10003895
0.0,0.0,0.0,0.0,18-45-03,0.040841103,-0.41167462,-1.0604333,249.0,0.119529836,0.568517,-0.10003895
0.0,0.0,0.0,0.0,18-45-03,0.040841103,-0.41167462,-1.0604333,249.0,0.119529836,0.568517,-0.10003895
0.0,0.0,0.0,0.0,18-45-03,0.040841103,-0.41167462,-1.0604333,249.0,0.119529836,0.568517,-0.10003895
0.0,0.0,0.0,0.0,18-45-04,0.040841103,-0.41167462,-1.0604333,249.0,0.119529836,0.568517,-0.10003895
0.0,0.0,0.0,0.0,18-45-04,0.19937325,-0.11488434,-0.38969684,249.0,0.119529836,0.568517,-0.10003895
0.0,0.0,0.0,0.0,18-45-04,0.19937325,-0.11488434,-0.38969684,249.0,0.119529836,0.568517,-0.10003895
0.0,0.0,0.0,0.0,18-45-04,0.19937325,-0.11488434,-0.38969684,249.0,0.119529836,0.568517,-0.10003895
0.0,0.0,0.0,0.0,18-45-04,0.24756908,-0.20409393,-0.5805955,250.0,0.119529836,0.568517,-0.10003895
0.0,0.0,0.0,0.0,18-45-04,0.24756908,-0.20409393,-0.5805955,250.0,0.119529836,0.568517,-0.10003895
0.0,0.0,0.0,0.0,18-45-04,0.24756908,-0.20409393,-0.5805955,250.0,0.119529836,0.568517,-0.10003895
0.0,0.0,0.0,0.0,18-45-04,0.27504063,-0.24049708,-0.6816554,250.0,0.119529836,0.568517,-0.10003895
0.0,0.0,0.0,0.0,18-45-04,0.27504063,-0.24049708,-0.6816554,250.0,0.119529836,0.568517,-0.10003895
0.0,0.0,0.0,0.0,18-45-04,0.27504063,-0.24049708,-0.6816554,250.0,0.119529836,0.568517,-0.10003895
0.0,0.0,0.0,0.0,18-45-04,0.27504063,-0.24049708,-0.6816554,250.0,0.119529836,0.568517,-0.10003895
0.0,0.0,0.0,0.0,18-45-04,0.27504063,-0.24049708,-0.6816554,250.0,0.119529836,0.568517,-0.10003895
0.0,0.0,0.0,0.0,18-45-04,0.4218359,-0.53304553,-0.5665808,250.0,-0.14864002,0.51659346,-0.0517806
0.0,0.0,0.0,0.0,18-45-04,0.4218359,-0.53304553,-0.5665808,250.0,-0.14864002,0.51659346,-0.0517806
0.0,0.0,0.0,0.0,18-45-04,0.4218359,-0.53304553,-0.5665808,250.0,-0.14864002,0.51659346,-0.0517806
0.0,0.0,0.0,0.0,18-45-04,0.4526062,-0.53957903,-0.66608,250.0,-0.14864002,0.51659346,-0.0517806
0.0,0.0,0.0,0.0,18-45-04,0.4526062,-0.53957903,-0.66608,250.0,-0.14864002,0.51659346,-0.0517806
0.0,0.0,0.0,0.0,18-45-04,0.4898262,-0.5903724,-0.7802832,250.0,-0.14864002,0.51659346,-0.0517806
0.0,0.0,0.0,0.0,18-45-04,0.4898262,-0.5903724,-0.7802832,250.0,-0.14864002,0.51659346,-0.0517806
0.0,0.0,0.0,0.0,18-45-04,0.4898262,-0.5903724,-0.7802832,250.0,-0.14864002,0.51659346,-0.0517806
0.0,0.0,0.0,0.0,18-45-04,0.5645199,-0.715194,-0.99217415,251.0,-0.14864002,0.51659346,-0.0517806
0.0,0.0,0.0,0.0,18-45-04,0.5645199,-0.715194,-0.99217415,251.0,-0.14864002,0.51659346,-0.0517806
0.0,0.0,0.0,0.0,18-45-04,0.5645199,-0.715194,-0.99217415,251.0,-0.14864002,0.51659346,-0.0517806
0.0,0.0,0.0,0.0,18-45-04,0.5645199,-0.715194,-0.99217415,251.0,-0.14864002,0.51659346,-0.0517806
0.0,0.0,0.0,0.0,18-45-04,-0.13536835,-0.1377344,-0.32702827,251.0,-0.14864002,0.51659346,-0.0517806
0.0,0.0,0.0,0.0,18-45-04,-0.13536835,-0.1377344,-0.32702827,251.0,-0.14864002,0.51659346,-0.0517806
0.0,0.0,0.0,0.0,18-45-04,-0.13536835,-0.1377344,-0.32702827,251.0,-0.14864002,0.51659346,-0.0517806
0.0,0.0,0.0,0.0,18-45-04,-0.13536835,-0.1377344,-0.32702827,251.0,-0.14864002,0.51659346,-0.0517806
0.0,0.0,0.0,0.0,18-45-04,-0.05214119,-0.18766837,-0.54211926,251.0,-0.14864002,0.51659346,-0.0517806
0.0,0.0,0.0,0.0,18-45-04,-0.05214119,-0.18766837,-0.54211926,251.0,-0.14864002,0.51659346,-0.0517806
0.0,0.0,0.0,0.0,18-45-04,-0.05214119,-0.18766837,-0.54211926,251.0,-0.14864002,0.51659346,-0.0517806
0.0,0.0,0.0,0.0,18-45-04,-0.013854027,-0.20106225,-0.6368592,251.0,-0.14864002,0.51659346,-0.0517806
0.0,0.0,0.0,0.0,18-45-04,-0.013854027,-0.20106225,-0.6368592,251.0,-0.14864002,0.51659346,-0.0517806
0.0,0.0,0.0,0.0,18-45-04,-0.013854027,-0.20106225,-0.6368592,251.0,-0.14864002,0.51659346,-0.0517806
0.0,0.0,0.0,0.0,18-45-04,-0.013854027,-0.20106225,-0.6368592,251.0,-0.14864002,0.51659346,-0.0517806
0.0,0.0,0.0,0.0,18-45-04,0.02150631,-0.21164005,-0.7219858,251.0,0.04561514,0.5391955,-0.06033272
0.0,0.0,0.0,0.0,18-45-04,0.16829777,0.36610857,-0.90795565,251.0,0.04561514,0.5391955,-0.06033272
0.0,0.0,0.0,0.0,18-45-04,0.20436573,0.35464215,-0.98982406,251.0,0.04561514,0.5391955,-0.06033272
0.0,0.0,0.0,0.0,18-45-04,0.20436573,0.35464215,-0.98982406,251.0,0.04561514,0.5391955,-0.06033272
0.0,0.0,0.0,0.0,18-45-04,0.20436573,0.35464215,-0.98982406,251.0,0.04561514,0.5391955,-0.06033272
0.0,0.0,0.0,0.0,18-45-04,0.20436573,0.35464215,-0.98982406,251.0,0.04561514,0.5391955,-0.06033272
0.0,0.0,0.0,0.0,18-45-04,0.24110603,0.3646436,-1.0730445,252.0,0.04561514,0.5391955,-0.06033272
0.0,0.0,0.0,0.0,18-45-04,0.24110603,0.3646436,-1.0730445,252.0,0.04561514,0.5391955,-0.06033272
0.0,0.0,0.0,0.0,18-45-04,0.24110603,0.3646436,-1.0730445,252.0,0.04561514,0.5391955,-0.06033272
0.0,0.0,0.0,0.0,18-45-04,0.3176489,0.35973933,-1.2379568,252.0,0.04561514,0.5391955,-0.06033272
0.0,0.0,0.0,0.0,18-45-04,0.3176489,0.35973933,-1.2379568,252.0,0.04561514,0.5391955,-0.06033272
0.0,0.0,0.0,0.0,18-45-04,0.3176489,0.35973933,-1.2379568,252.0,0.04561514,0.5391955,-0.06033272
0.0,0.0,0.0,0.0,18-45-04,0.3176489,0.35973933,-1.2379568,252.0,0.04561514,0.5391955,-0.06033272
0.0,0.0,0.0,0.0,18-45-04,-1.0090575,0.17664358,0.086312294,252.0,0.04561514,0.5391955,-0.06033272
0.0,0.0,0.0,0.0,18-45-04,-1.0090575,0.17664358,0.086312294,252.0,0.04561514,0.5391955,-0.06033272
0.0,0.0,0.0,0.0,18-45-04,-1.0090575,0.17664358,0.086312294,252.0,0.04561514,0.5391955,-0.06033272
0.0,0.0,0.0,0.0,18-45-04,-1.0090575,0.17664358,0.086312294,252.0,0.04561514,0.5391955,-0.06033272
0.0,0.0,0.0,0.0,18-45-04,-0.94000196,0.23606476,-0.057602882,252.0,0.04561514,0.5391955,-0.06033272
0.0,0.0,0.0,0.0,18-45-04,-0.94000196,0.23606476,-0.057602882,252.0,0.04561514,0.5391955,-0.06033272
0.0,0.0,0.0,0.0,18-45-04,-0.90256166,0.27181676,-0.13313007,252.0,-0.21217,0.36265543,0.11315302
0.0,0.0,0.0,0.0,18-45-04,-0.90256166,0.27181676,-0.13313007,252.0,-0.21217,0.36265543,0.11315302
0.0,0.0,0.0,0.0,18-45-04,-0.90256166,0.27181676,-0.13313007,252.0,-0.21217,0.36265543,0.11315302
0.0,0.0,0.0,0.0,18-45-04,-0.90256166,0.27181676,-0.13313007,252.0,-0.21217,0.36265543,0.11315302
0.0,0.0,0.0,0.0,18-45-04,-0.90256166,0.27181676,-0.13313007,252.0,-0.21217,0.36265543,0.11315302
0.0,0.0,0.0,0.0,18-45-04,-0.87252474,0.31112206,-0.1929326,252.0,-0.21217,0.36265543,0.11315302
0.0,0.0,0.0,0.0,18-45-04,-0.61358833,-0.41482395,0.28114557,252.0,-0.21217,0.36265543,0.11315302
0.0,0.0,0.0,0.0,18-45-04,-0.5775194,-0.34884617,0.21207762,252.0,-0.21217,0.36265543,0.11315302
0.0,0.0,0.0,0.0,18-45-04,-0.5775194,-0.34884617,0.21207762,252.0,-0.21217,0.36265543,0.11315302
0.0,0.0,0.0,0.0,18-45-04,-0.5775194,-0.34884617,0.21207762,252.0,-0.21217,0.36265543,0.11315302
0.0,0.0,0.0,0.0,18-45-04,-0.5775194,-0.34884617,0.21207762,252.0,-0.21217,0.36265543,0.11315302
0.0,0.0,0.0,0.0,18-45-04,-0.547245,-0.29897887,0.15586138,252.0,-0.21217,0.36265543,0.11315302
0.0,0.0,0.0,0.0,18-45-04,-0.547245,-0.29897887,0.15586138,252.0,-0.21217,0.36265543,0.11315302
0.0,0.0,0.0,0.0,18-45-04,-0.547245,-0.29897887,0.15586138,252.0,-0.21217,0.36265543,0.11315302
0.0,0.0,0.0,0.0,18-45-04,-0.46762753,-0.24429902,0.013916016,252.0,-0.21217,0.36265543,0.11315302
0.0,0.0,0.0,0.0,18-45-04,-0.46762753,-0.24429902,0.013916016,252.0,-0.21217,0.36265543,0.11315302
0.0,0.0,0.0,0.0,18-45-04,-0.46762753,-0.24429902,0.013916016,252.0,-0.21217,0.36265543,0.11315302
0.0,0.0,0.0,0.0,18-45-04,0.3068905,-0.055424076,0.55435705,252.0,-0.21217,0.36265543,0.11315302
0.0,0.0,0.0,0.0,18-45-04,0.3068905,-0.055424076,0.55435705,252.0,-0.21217,0.36265543,0.11315302
0.0,0.0,0.0,0.0,18-45-04,0.3068905,-0.055424076,0.55435705,252.0,-0.21217,0.36265543,0.11315302
0.0,0.0,0.0,0.0,18-45-04,0.3068905,-0.055424076,0.55435705,252.0,-0.21217,0.36265543,0.11315302
0.0,0.0,0.0,0.0,18-45-04,0.3068905,-0.055424076,0.55435705,252.0,-0.21217,0.36265543,0.11315302
0.0,0.0,0.0,0.0,18-45-04,0.39655876,-0.036475483,0.40360117,251.0,0.1519057,0.37853792,0.08260975
0.0,0.0,0.0,0.0,18-45-04,0.4351158,-0.03558321,0.3405671,251.0,0.1519057,0.37853792,0.08260975
0.0,0.0,0.0,0.0,18-45-04,0.4351158,-0.03558321,0.3405671,251.0,0.1519057,0.37853792,0.08260975
0.0,0.0,0.0,0.0,18-45-04,0.4351158,-0.03558321,0.3405671,251.0,0.1519057,0.37853792,0.08260975
0.0,0.0,0.0,0.0,18-45-04,0.4351158,-0.03558321,0.3405671,251.0,0.1519057,0.37853792,0.08260975
0.0,0.0,0.0,0.0,18-45-04,0.48329163,-0.028175123,0.26332808,251.0,0.1519057,0.37853792,0.08260975
0.0,0.0,0.0,0.0,18-45-04,0.48329163,-0.028175123,0.26332808,251.0,0.1519057,0.37853792,0.08260975
0.0,0.0,0.0,0.0,18-45-04,0.48329163,-0.028175123,0.26332808,251.0,0.1519057,0.37853792,0.08260975
0.0,0.0,0.0,0.0,18-45-04,0.31175804,0.017747395,-0.1034565,251.0,0.1519057,0.37853792,0.08260975
0.0,0.0,0.0,0.0,18-45-04,0.35495663,0.010449201,-0.17051554,251.0,0.1519057,0.37853792,0.08260975
0.0,0.0,0.0,0.0,18-45-04,0.35495663,0.010449201,-0.17051554,251.0,0.1519057,0.37853792,0.08260975
0.0,0.0,0.0,0.0,18-45-04,0.35495663,0.010449201,-0.17051554,251.0,0.1519057,0.37853792,0.08260975
0.0,0.0,0.0,0.0,18-45-04,0.35495663,0.010449201,-0.17051554,251.0,0.1519057,0.37853792,0.08260975
0.0,0.0,0.0,0.0,18-45-04,0.39125824,0.022922903,-0.22571707,251.0,0.1519057,0.37853792,0.08260975
0.0,0.0,0.0,0.0,18-45-04,0.39125824,0.022922903,-0.22571707,251.0,0.1519057,0.37853792,0.08260975
0.0,0.0,0.0,0.0,18-45-04,0.39125824,0.022922903,-0.22571707,251.0,0.1519057,0.37853792,0.08260975
0.0,0.0,0.0,0.0,18-45-04,0.4384222,0.068613514,-0.29562473,251.0,0.1519057,0.37853792,0.08260975
0.0,0.0,0.0,0.0,18-45-04,0.4384222,0.068613514,-0.29562473,251.0,0.1519057,0.37853792,0.08260975
0.0,0.0,0.0,0.0,18-45-04,0.4384222,0.068613514,-0.29562473,251.0,0.1519057,0.37853792,0.08260975
0.0,0.0,0.0,0.0,18-45-04,0.074071884,-0.21101022,0.4442525,251.0,0.1519057,0.37853792,0.08260975
0.0,0.0,0.0,0.0,18-45-04,0.074071884,-0.21101022,0.4442525,251.0,0.1519057,0.37853792,0.08260975
0.0,0.0,0.0,0.0,18-45-04,0.074071884,-0.21101022,0.4442525,251.0,0.1519057,0.37853792,0.08260975
0.0,0.0,0.0,0.0,18-45-04,0.074071884,-0.21101022,0.4442525,251.0,0.1519057,0.37853792,0.08260975
0.0,0.0,0.0,0.0,18-45-04,0.11454201,-0.21391557,0.38511467,251.0,0.11036686,0.36143368,0.04046005
0.0,0.0,0.0,0.0,18-45-04,0.15203857,-0.21943331,0.33109665,251.0,0.11036686,0.36143368,0.04046005
0.0,0.0,0.0,0.0,18-45-04,0.19194603,-0.22203122,0.27449512,251.0,0.11036686,0.36143368,0.04046005
0.0,0.0,0.0,0.0,18-45-04,0.19194603,-0.22203122,0.27449512,251.0,0.11036686,0.36143368,0.04046005
0.0,0.0,0.0,0.0,18-45-04,0.19194603,-0.22203122,0.27449512,251.0,0.11036686,0.36143368,0.04046005
0.0,0.0,0.0,0.0,18-45-04,0.19194603,-0.22203122,0.27449512,251.0,0.11036686,0.36143368,0.04046005
0.0,0.0,0.0,0.0,18-45-04,0.21600819,-0.20182562,0.24124002,251.0,0.11036686,0.36143368,0.04046005
0.0,0.0,0.0,0.0,18-45-04,0.21600819,-0.20182562,0.24124002,251.0,0.11036686,0.36143368,0.04046005
0.0,0.0,0.0,0.0,18-45-04,0.21600819,-0.20182562,0.24124002,251.0,0.11036686,0.36143368,0.04046005
0.0,0.0,0.0,0.0,18-45-04,-0.8575249,0.34859455,0.7577872,251.0,0.11036686,0.36143368,0.04046005
0.0,0.0,0.0,0.0,18-45-04,-0.8575249,0.34859455,0.7577872,251.0,0.11036686,0.36143368,0.04046005
0.0,0.0,0.0,0.0,18-45-04,-0.8575249,0.34859455,0.7577872,251.0,0.11036686,0.36143368,0.04046005
0.0,0.0,0.0,0.0,18-45-04,-0.8575249,0.34859455,0.7577872,251.0,0.11036686,0.36143368,0.04046005
0.0,0.0,0.0,0.0,18-45-04,-0.8575249,0.34859455,0.7577872,251.0,0.11036686,0.36143368,0.04046005
0.0,0.0,0.0,0.0,18-45-04,-0.81554127,0.3807912,0.7018943,250.0,0.11036686,0.36143368,0.04046005
0.0,0.0,0.0,0.0,18-45-04,-0.81554127,0.3807912,0.7018943,250.0,0.11036686,0.36143368,0.04046005
0.0,0.0,0.0,0.0,18-45-04,-0.81554127,0.3807912,0.7018943,250.0,0.11036686,0.36143368,0.04046005
0.0,0.0,0.0,0.0,18-45-04,-0.74040794,0.4416836,0.6045046,250.0,0.11036686,0.36143368,0.04046005
0.0,0.0,0.0,0.0,18-45-04,-0.74040794,0.4416836,0.6045046,250.0,0.11036686,0.36143368,0.04046005
0.0,0.0,0.0,0.0,18-45-04,-0.74040794,0.4416836,0.6045046,250.0,0.11036686,0.36143368,0.04046005
0.0,0.0,0.0,0.0,18-45-05,0.17480612,-0.35618797,0.5072231,250.0,0.05844331,0.24903448,0.12353772
0.0,0.0,0.0,0.0,18-45-05,0.17480612,-0.35618797,0.5072231,250.0,0.05844331,0.24903448,0.12353772
0.0,0.0,0.0,0.0,18-45-05,0.17480612,-0.35618797,0.5072231,250.0,0.05844331,0.24903448,0.12353772
0.0,0.0,0.0,0.0,18-45-05,0.2033515,-0.34336713,0.4709444,250.0,0.05844331,0.24903448,0.12353772
0.0,0.0,0.0,0.0,18-45-05,0.2033515,-0.34336713,0.4709444,250.0,0.05844331,0.24903448,0.12353772
0.0,0.0,0.0,0.0,18-45-05,0.22620249,-0.32972133,0.44235706,250.0,0.05844331,0.24903448,0.12353772
0.0,0.0,0.0,0.0,18-45-05,0.25528336,-0.32299757,0.40575027,250.0,0.05844331,0.24903448,0.12353772
0.0,0.0,0.0,0.0,18-45-05,0.25528336,-0.32299757,0.40575027,250.0,0.05844331,0.24903448,0.12353772
0.0,0.0,0.0,0.0,18-45-05,0.25528336,-0.32299757,0.40575027,250.0,0.05844331,0.24903448,0.12353772
0.0,0.0,0.0,0.0,18-45-05,0.25528336,-0.32299757,0.40575027,250.0,0.05844331,0.24903448,0.12353772
0.0,0.0,0.0,0.0,18-45-05,0.275908,-0.31681457,0.380085,250.0,0.05844331,0.24903448,0.12353772
0.0,0.0,0.0,0.0,18-45-05,0.275908,-0.31681457,0.380085,250.0,0.05844331,0.24903448,0.12353772
0.0,0.0,0.0,0.0,18-45-05,0.275908,-0.31681457,0.380085,250.0,0.05844331,0.24903448,0.12353772
0.0,0.0,0.0,0.0,18-45-05,-0.07923603,0.06940518,0.47969246,250.0,0.05844331,0.24903448,0.12353772
0.0,0.0,0.0,0.0,18-45-05,-0.07923603,0.06940518,0.47969246,250.0,0.05844331,0.24903448,0.12353772
0.0,0.0,0.0,0.0,18-45-05,-0.07923603,0.06940518,0.47969246,250.0,0.05844331,0.24903448,0.12353772
0.0,0.0,0.0,0.0,18-45-05,-0.07923603,0.06940518,0.47969246,250.0,0.05844331,0.24903448,0.12353772
0.0,0.0,0.0,0.0,18-45-05,-0.03748846,0.05142705,0.4279647,249.0,0.05844331,0.24903448,0.12353772
0.0,0.0,0.0,0.0,18-45-05,-0.03748846,0.05142705,0.4279647,249.0,0.05844331,0.24903448,0.12353772
0.0,0.0,0.0,0.0,18-45-05,-0.03748846,0.05142705,0.4279647,249.0,0.05844331,0.24903448,0.12353772
0.0,0.0,0.0,0.0,18-45-05,-0.03748846,0.05142705,0.4279647,249.0,0.05844331,0.24903448,0.12353772
0.0,0.0,0.0,0.0,18-45-05,0.020579338,0.07119529,0.35931492,249.0,0.030954374,0.28202122,0.14430715
0.0,0.0,0.0,0.0,18-45-05,0.020579338,0.07119529,0.35931492,249.0,0.030954374,0.28202122,0.14430715
0.0,0.0,0.0,0.0,18-45-05,0.020579338,0.07119529,0.35931492,249.0,0.030954374,0.28202122,0.14430715
0.0,0.0,0.0,0.0,18-45-05,0.74430466,0.35675454,-1.333169,249.0,0.030954374,0.28202122,0.14430715
0.0,0.0,0.0,0.0,18-45-05,0.74430466,0.35675454,-1.333169,249.0,0.030954374,0.28202122,0.14430715
0.0,0.0,0.0,0.0,18-45-05,0.74430466,0.35675454,-1.333169,249.0,0.030954374,0.28202122,0.14430715
0.0,0.0,0.0,0.0,18-45-05,0.74430466,0.35675454,-1.333169,249.0,0.030954374,0.28202122,0.14430715
0.0,0.0,0.0,0.0,18-45-05,0.7712469,0.37489554,-1.3636765,249.0,0.030954374,0.28202122,0.14430715
0.0,0.0,0.0,0.0,18-45-05,0.7980046,0.39716968,-1.393435,249.0,0.030954374,0.28202122,0.14430715
0.0,0.0,0.0,0.0,18-45-05,0.8375654,0.40249702,-1.4384837,249.0,0.030954374,0.28202122,0.14430715
0.0,0.0,0.0,0.0,18-45-05,0.8375654,0.40249702,-1.4384837,249.0,0.030954374,0.28202122,0.14430715
0.0,0.0,0.0,0.0,18-45-05,0.8375654,0.40249702,-1.4384837,249.0,0.030954374,0.28202122,0.14430715
0.0,0.0,0.0,0.0,18-45-05,0.8375654,0.40249702,-1.4384837,249.0,0.030954374,0.28202122,0.14430715
0.0,0.0,0.0,0.0,18-45-05,0.87588024,0.38663703,-1.4827657,249.0,0.030954374,0.28202122,0.14430715
0.0,0.0,0.0,0.0,18-45-05,0.87588024,0.38663703,-1.4827657,249.0,0.030954374,0.28202122,0.14430715
0.0,0.0,0.0,0.0,18-45-05,0.87588024,0.38663703,-1.4827657,249.0,0.030954374,0.28202122,0.14430715
0.0,0.0,0.0,0.0,18-45-05,-0.21693134,0.40647352,-0.104922295,248.0,0.030954374,0.28202122,0.14430715
0.0,0.0,0.0,0.0,18-45-05,-0.21693134,0.40647352,-0.104922295,248.0,0.030954374,0.28202122,0.14430715
0.0,0.0,0.0,0.0,18-45-05,-0.21693134,0.40647352,-0.104922295,248.0,0.030954374,0.28202122,0.14430715
0.0,0.0,0.0,0.0,18-45-05,-0.21693134,0.40647352,-0.104922295,248.0,0.030954374,0.28202122,0.14430715
0.0,0.0,0.0,0.0,18-45-05,-0.17459059,0.39996693,-0.15129137,248.0,0.030954374,0.28202122,0.14430715
0.0,0.0,0.0,0.0,18-45-05,-0.17459059,0.39996693,-0.15129137,248.0,0.030954374,0.28202122,0.14430715
0.0,0.0,0.0,0.0,18-45-05,-0.17459059,0.39996693,-0.15129137,248.0,0.030954374,0.28202122,0.14430715
0.0,0.0,0.0,0.0,18-45-05,-0.17459059,0.39996693,-0.15129137,248.0,0.030954374,0.28202122,0.14430715
0.0,0.0,0.0,0.0,18-45-05,-0.118824005,0.35901794,-0.21285248,248.0,0.19466627,0.20077614,0.008695056
0.0,0.0,0.0,0.0,18-45-05,-0.118824005,0.35901794,-0.21285248,248.0,0.19466627,0.20077614,0.008695056
0.0,0.0,0.0,0.0,18-45-05,-0.118824005,0.35901794,-0.21285248,248.0,0.19466627,0.20077614,0.008695056
0.0,0.0,0.0,0.0,18-45-05,-0.3083501,0.2094198,0.40323353,247.0,0.19466627,0.20077614,0.008695056
0.0,0.0,0.0,0.0,18-45-05,-0.3083501,0.2094198,0.40323353,247.0,0.19466627,0.20077614,0.008695056
0.0,0.0,0.0,0.0,18-45-05,-0.3083501,0.2094198,0.40323353,247.0,0.19466627,0.20077614,0.008695056
0.0,0.0,0.0,0.0,18-45-05,-0.2616272,0.14855477,0.35289,247.0,0.19466627,0.20077614,0.008695056
0.0,0.0,0.0,0.0,18-45-05,-0.2616272,0.14855477,0.35289,247.0,0.19466627,0.20077614,0.008695056
0.0,0.0,0.0,0.0,18-45-05,-0.2331338,0.12489436,0.32302475,247.0,0.19466627,0.20077614,0.008695056
0.0,0.0,0.0,0.0,18-45-05,-0.20665884,0.13851562,0.29620743,247.0,0.19466627,0.20077614,0.008695056
0.0,0.0,0.0,0.0,18-45-05,-0.20665884,0.13851562,0.29620743,247.0,0.19466627,0.20077614,0.008695056
0.0,0.0,0.0,0.0,18-45-05,-0.20665884,0.13851562,0.29620743,247.0,0.19466627,0.20077614,0.008695056
0.0,0.0,0.0,0.0,18-45-05,-0.20665884,0.13851562,0.29620743,247.0,0.19466627,0.20077614,0.008695056
0.0,0.0,0.0,0.0,18-45-05,-0.18201733,0.1603389,0.2716546,246.0,0.19466627,0.20077614,0.008695056
0.0,0.0,0.0,0.0,18-45-05,-0.18201733,0.1603389,0.2716546,246.0,0.19466627,0.20077614,0.008695056
0.0,0.0,0.0,0.0,18-45-05,-0.18201733,0.1603389,0.2716546,246.0,0.19466627,0.20077614,0.008695056
0.0,0.0,0.0,0.0,18-45-05,0.20705032,1.1189165,1.3423209,246.0,0.19466627,0.20077614,0.008695056
0.0,0.0,0.0,0.0,18-45-05,0.20705032,1.1189165,1.3423209,246.0,0.19466627,0.20077614,0.008695056
0.0,0.0,0.0,0.0,18-45-05,0.20705032,1.1189165,1.3423209,246.0,0.19466627,0.20077614,0.008695056
0.0,0.0,0.0,0.0,18-45-05,0.20705032,1.1189165,1.3423209,246.0,0.19466627,0.20077614,0.008695056
0.0,0.0,0.0,0.0,18-45-05,0.25066805,1.0818105,1.2988682,245.0,0.24414635,0.27774516,0.024577552
0.0,0.0,0.0,0.0,18-45-05,0.25066805,1.0818105,1.2988682,245.0,0.24414635,0.27774516,0.024577552
0.0,0.0,0.0,0.0,18-45-05,0.25066805,1.0818105,1.2988682,245.0,0.24414635,0.27774516,0.024577552
0.0,0.0,0.0,0.0,18-45-05,0.2845826,1.0517292,1.2655835,245.0,0.24414635,0.27774516,0.024577552
0.0,0.0,0.0,0.0,18-45-05,0.30379772,1.0257173,1.2468734,245.0,0.24414635,0.27774516,0.024577552
0.0,0.0,0.0,0.0,18-45-05,0.24122524,-0.1252173,0.35471153,245.0,0.24414635,0.27774516,0.024577552
0.0,0.0,0.0,0.0,18-45-05,0.24122524,-0.1252173,0.35471153,245.0,0.24414635,0.27774516,0.024577552
0.0,0.0,0.0,0.0,18-45-05,0.24122524,-0.1252173,0.35471153,245.0,0.24414635,0.27774516,0.024577552
0.0,0.0,0.0,0.0,18-45-05,0.24122524,-0.1252173,0.35471153,245.0,0.24414635,0.27774516,0.024577552
0.0,0.0,0.0,0.0,18-45-05,0.24122524,-0.1252173,0.35471153,245.0,0.24414635,0.27774516,0.024577552
0.0,0.0,0.0,0.0,18-45-05,0.24122524,-0.1252173,0.35471153,245.0,0.24414635,0.27774516,0.024577552
0.0,0.0,0.0,0.0,18-45-05,0.2741847,-0.16133782,0.32336092,244.0,0.24414635,0.27774516,0.024577552
0.0,0.0,0.0,0.0,18-45-05,0.32554626,-0.26577467,0.27619553,243.0,0.24414635,0.27774516,0.024577552
0.0,0.0,0.0,0.0,18-45-05,0.32554626,-0.26577467,0.27619553,243.0,0.24414635,0.27774516,0.024577552
0.0,0.0,0.0,0.0,18-45-05,0.32554626,-0.26577467,0.27619553,243.0,0.24414635,0.27774516,0.024577552
0.0,0.0,0.0,0.0,18-45-05,0.32554626,-0.26577467,0.27619553,243.0,0.24414635,0.27774516,0.024577552
0.0,0.0,0.0,0.0,18-45-05,0.35348415,-0.32810923,0.25161123,243.0,0.24414635,0.27774516,0.024577552
0.0,0.0,0.0,0.0,18-45-05,0.35348415,-0.32810923,0.25161123,243.0,0.24414635,0.27774516,0.024577552
0.0,0.0,0.0,0.0,18-45-05,0.35348415,-0.32810923,0.25161123,243.0,0.24414635,0.27774516,0.024577552
0.0,0.0,0.0,0.0,18-45-05,0.35348415,-0.32810923,0.25161123,243.0,0.24414635,0.27774516,0.024577552
0.0,0.0,0.0,0.0,18-45-05,0.40103912,-0.016156852,0.15794897,242.0,0.35165864,0.06699664,0.049623027
0.0,0.0,0.0,0.0,18-45-05,0.40103912,-0.016156852,0.15794897,242.0,0.35165864,0.06699664,0.049623027
0.0,0.0,0.0,0.0,18-45-05,0.40103912,-0.016156852,0.15794897,242.0,0.35165864,0.06699664,0.049623027
0.0,0.0,0.0,0.0,18-45-05,0.40710354,-0.059878647,0.1542244,242.0,0.35165864,0.06699664,0.049623027
0.0,0.0,0.0,0.0,18-45-05,0.40710354,-0.059878647,0.1542244,242.0,0.35165864,0.06699664,0.049623027
0.0,0.0,0.0,0.0,18-45-05,0.40841484,-0.10739806,0.15534496,242.0,0.35165864,0.06699664,0.049623027
0.0,0.0,0.0,0.0,18-45-05,0.40841484,-0.10739806,0.15534496,242.0,0.35165864,0.06699664,0.049623027
0.0,0.0,0.0,0.0,18-45-05,0.40841484,-0.10739806,0.15534496,242.0,0.35165864,0.06699664,0.049623027
0.0,0.0,0.0,0.0,18-45-05,0.41402578,-0.15180421,0.15263891,241.0,0.35165864,0.06699664,0.049623027
0.0,0.0,0.0,0.0,18-45-05,-0.24970531,0.20223185,-0.31591034,241.0,0.35165864,0.06699664,0.049623027
0.0,0.0,0.0,0.0,18-45-05,-0.24970531,0.20223185,-0.31591034,241.0,0.35165864,0.06699664,0.049623027
0.0,0.0,0.0,0.0,18-45-05,-0.24970531,0.20223185,-0.31591034,241.0,0.35165864,0.06699664,0.049623027
0.0,0.0,0.0,0.0,18-45-05,-0.24970531,0.20223185,-0.31591034,241.0,0.35165864,0.06699664,0.049623027
0.0,0.0,0.0,0.0,18-45-05,-0.24970531,0.20223185,-0.31591034,241.0,0.35165864,0.06699664,0.049623027
0.0,0.0,0.0,0.0,18-45-05,-0.24182892,0.17153218,-0.32111263,241.0,0.35165864,0.06699664,0.049623027
0.0,0.0,0.0,0.0,18-45-05,-0.24182892,0.17153218,-0.32111263,241.0,0.35165864,0.06699664,0.049623027
0.0,0.0,0.0,0.0,18-45-05,-0.24137163,0.12043619,-0.31781244,240.0,0.35165864,0.06699664,0.049623027
0.0,0.0,0.0,0.0,18-45-05,-0.24137163,0.12043619,-0.31781244,240.0,0.35165864,0.06699664,0.049623027
0.0,0.0,0.0,0.0,18-45-05,-0.24137163,0.12043619,-0.31781244,240.0,0.35165864,0.06699664,0.049623027
0.0,0.0,0.0,0.0,18-45-05,-0.24137163,0.12043619,-0.31781244,240.0,0.35165864,0.06699664,0.049623027
0.0,0.0,0.0,0.0,18-45-05,-0.23317385,0.084391356,-0.32252073,240.0,0.35165864,0.06699664,0.049623027
0.0,0.0,0.0,0.0,18-45-05,-0.23317385,0.084391356,-0.32252073,240.0,0.35165864,0.06699664,0.049623027
0.0,0.0,0.0,0.0,18-45-05,-0.23317385,0.084391356,-0.32252073,240.0,0.35165864,0.06699664,0.049623027
0.0,0.0,0.0,0.0,18-45-05,-0.23317385,0.084391356,-0.32252073,240.0,0.35165864,0.06699664,0.049623027
0.0,0.0,0.0,0.0,18-45-05,0.10901451,0.16905582,0.2587986,239.0,0.36876285,0.14213307,0.14186367
0.0,0.0,0.0,0.0,18-45-05,0.10901451,0.16905582,0.2587986,239.0,0.36876285,0.14213307,0.14186367
0.0,0.0,0.0,0.0,18-45-05,0.10901451,0.16905582,0.2587986,239.0,0.36876285,0.14213307,0.14186367
0.0,0.0,0.0,0.0,18-45-05,0.1327281,0.135589,0.24035168,239.0,0.36876285,0.14213307,0.14186367
0.0,0.0,0.0,0.0,18-45-05,0.1327281,0.135589,0.24035168,239.0,0.36876285,0.14213307,0.14186367
0.0,0.0,0.0,0.0,18-45-05,0.1327281,0.135589,0.24035168,239.0,0.36876285,0.14213307,0.14186367
0.0,0.0,0.0,0.0,18-45-05,0.15955782,0.106390536,0.21895742,238.0,0.36876285,0.14213307,0.14186367
0.0,0.0,0.0,0.0,18-45-05,0.15955782,0.106390536,0.21895742,238.0,0.36876285,0.14213307,0.14186367
0.0,0.0,0.0,0.0,18-45-05,0.19446182,0.07574886,0.19078445,238.0,0.36876285,0.14213307,0.14186367
0.0,0.0,0.0,0.0,18-45-06,-0.121664524,-0.043295622,0.37209225,237.0,0.36876285,0.14213307,0.14186367
0.0,0.0,0.0,0.0,18-45-06,-0.121664524,-0.043295622,0.37209225,237.0,0.36876285,0.14213307,0.14186367
0.0,0.0,0.0,0.0,18-45-06,-0.121664524,-0.043295622,0.37209225,237.0,0.36876285,0.14213307,0.14186367
0.0,0.0,0.0,0.0,18-45-06,-0.121664524,-0.043295622,0.37209225,237.0,0.36876285,0.14213307,0.14186367
0.0,0.0,0.0,0.0,18-45-06,-0.063901424,-0.08313763,0.32593727,237.0,0.36876285,0.14213307,0.14186367
0.0,0.0,0.0,0.0,18-45-06,-0.063901424,-0.08313763,0.32593727,237.0,0.36876285,0.14213307,0.14186367
0.0,0.0,0.0,0.0,18-45-06,-0.063901424,-0.08313763,0.32593727,237.0,0.36876285,0.14213307,0.14186367
0.0,0.0,0.0,0.0,18-45-06,0.042986393,-0.117639065,0.2384224,236.0,0.36876285,0.14213307,0.14186367
0.0,0.0,0.0,0.0,18-45-06,0.042986393,-0.117639065,0.2384224,236.0,0.36876285,0.14213307,0.14186367
0.0,0.0,0.0,0.0,18-45-06,0.042986393,-0.117639065,0.2384224,236.0,0.36876285,0.14213307,0.14186367
0.0,0.0,0.0,0.0,18-45-06,0.042986393,-0.117639065,0.2384224,236.0,0.36876285,0.14213307,0.14186367
0.0,0.0,0.0,0.0,18-45-06,0.113992214,-0.109968364,0.17825842,236.0,0.13968839,0.364488,0.2927474
0.0,0.0,0.0,0.0,18-45-06,0.113992214,-0.109968364,0.17825842,236.0,0.13968839,0.364488,0.2927474
0.0,0.0,0.0,0.0,18-45-06,0.113992214,-0.109968364,0.17825842,236.0,0.13968839,0.364488,0.2927474
0.0,0.0,0.0,0.0,18-45-06,0.13878536,0.0028765798,0.2079773,236.0,0.13968839,0.364488,0.2927474
0.0,0.0,0.0,0.0,18-45-06,0.17464495,0.0064913034,0.17843962,235.0,0.13968839,0.364488,0.2927474
0.0,0.0,0.0,0.0,18-45-06,0.17464495,0.0064913034,0.17843962,235.0,0.13968839,0.364488,0.2927474
0.0,0.0,0.0,0.0,18-45-06,0.17464495,0.0064913034,0.17843962,235.0,0.13968839,0.364488,0.2927474
0.0,0.0,0.0,0.0,18-45-06,0.19175339,-0.005797267,0.1659956,235.0,0.13968839,0.364488,0.2927474
0.0,0.0,0.0,0.0,18-45-06,0.19175339,-0.005797267,0.1659956,235.0,0.13968839,0.364488,0.2927474
0.0,0.0,0.0,0.0,18-45-06,0.19175339,-0.005797267,0.1659956,235.0,0.13968839,0.364488,0.2927474
0.0,0.0,0.0,0.0,18-45-06,0.19202709,-0.017581522,0.16708517,234.0,0.13968839,0.364488,0.2927474
0.0,0.0,0.0,0.0,18-45-06,0.19202709,-0.017581522,0.16708517,234.0,0.13968839,0.364488,0.2927474
0.0,0.0,0.0,0.0,18-45-06,0.46490908,-0.19211298,0.07594013,234.0,0.13968839,0.364488,0.2927474
0.0,0.0,0.0,0.0,18-45-06,0.46490908,-0.19211298,0.07594013,234.0,0.13968839,0.364488,0.2927474
0.0,0.0,0.0,0.0,18-45-06,0.46490908,-0.19211298,0.07594013,234.0,0.13968839,0.364488,0.2927474
0.0,0.0,0.0,0.0,18-45-06,0.46490908,-0.19211298,0.07594013,234.0,0.13968839,0.364488,0.2927474
0.0,0.0,0.0,0.0,18-45-06,0.46490908,-0.19211298,0.07594013,234.0,0.13968839,0.364488,0.2927474
0.0,0.0,0.0,0.0,18-45-06,0.36611795,-0.20676726,0.16018152,234.0,0.13968839,0.364488,0.2927474
0.0,0.0,0.0,0.0,18-45-06,0.36611795,-0.20676726,0.16018152,234.0,0.13968839,0.364488,0.2927474
0.0,0.0,0.0,0.0,18-45-06,0.36611795,-0.20676726,0.16018152,234.0,0.13968839,0.364488,0.2927474
0.0,0.0,0.0,0.0,18-45-06,0.17424679,-0.2792921,0.33602953,234.0,0.24109203,-0.3025768,0.09543792
0.0,0.0,0.0,0.0,18-45-06,0.17424679,-0.2792921,0.33602953,234.0,0.24109203,-0.3025768,0.09543792
0.0,0.0,0.0,0.0,18-45-06,0.17424679,-0.2792921,0.33602953,234.0,0.24109203,-0.3025768,0.09543792
0.0,0.0,0.0,0.0,18-45-06,0.12904167,-0.29526663,0.37878466,233.0,0.24109203,-0.3025768,0.09543792
0.0,0.0,0.0,0.0,18-45-06,0.12904167,-0.29526663,0.37878466,233.0,0.24109203,-0.3025768,0.09543792
0.0,0.0,0.0,0.0,18-45-06,0.12904167,-0.29526663,0.37878466,233.0,0.24109203,-0.3025768,0.09543792
0.0,0.0,0.0,0.0,18-45-06,0.12904167,-0.29526663,0.37878466,233.0,0.24109203,-0.3025768,0.09543792
0.0,0.0,0.0,0.0,18-45-06,0.18137598,-0.03991443,-0.24321365,233.0,0.24109203,-0.3025768,0.09543792
0.0,0.0,0.0,0.0,18-45-06,0.10475874,-0.038214922,-0.17217493,233.0,0.24109203,-0.3025768,0.09543792
0.0,0.0,0.0,0.0,18-45-06,-0.0025334358,-0.04636419,-0.06864023,233.0,0.24109203,-0.3025768,0.09543792
0.0,0.0,0.0,0.0,18-45-06,-0.0025334358,-0.04636419,-0.06864023,233.0,0.24109203,-0.3025768,0.09543792
0.0,0.0,0.0,0.0,18-45-06,-0.0025334358,-0.04636419,-0.06864023,233.0,0.24109203,-0.3025768,0.09543792
0.0,0.0,0.0,0.0,18-45-06,-0.0025334358,-0.04636419,-0.06864023,233.0,0.24109203,-0.3025768,0.09543792
0.0,0.0,0.0,0.0,18-45-06,-0.07020235,-0.054819584,-0.0012216568,233.0,0.24109203,-0.3025768,0.09543792
0.0,0.0,0.0,0.0,18-45-06,-0.07020235,-0.054819584,-0.0012216568,233.0,0.24109203,-0.3025768,0.09543792
0.0,0.0,0.0,0.0,18-45-06,-0.07020235,-0.054819584,-0.0012216568,233.0,0.24109203,-0.3025768,0.09543792
0.0,0.0,0.0,0.0,18-45-06,0.10615921,-0.007669091,-0.23233604,232.0,0.24109203,-0.3025768,0.09543792
0.0,0.0,0.0,0.0,18-45-06,0.10615921,-0.007669091,-0.23233604,232.0,0.24109203,-0.3025768,0.09543792
0.0,0.0,0.0,0.0,18-45-06,0.10615921,-0.007669091,-0.23233604,232.0,0.24109203,-0.3025768,0.09543792
0.0,0.0,0.0,0.0,18-45-06,0.10615921,-0.007669091,-0.23233604,232.0,0.24109203,-0.3025768,0.09543792
0.0,0.0,0.0,0.0,18-45-06,0.10615921,-0.007669091,-0.23233604,232.0,0.24109203,-0.3025768,0.09543792
0.0,0.0,0.0,0.0,18-45-06,0.09231329,-9.655952E-6,-0.21964741,232.0,0.24109203,-0.3025768,0.09543792
0.0,0.0,0.0,0.0,18-45-06,0.09231329,-9.655952E-6,-0.21964741,232.0,0.24109203,-0.3025768,0.09543792
0.0,0.0,0.0,0.0,18-45-06,0.09231329,-9.655952E-6,-0.21964741,232.0,0.24109203,-0.3025768,0.09543792
0.0,0.0,0.0,0.0,18-45-06,0.06534529,-0.010381699,-0.19121265,232.0,0.15801434,-0.07044803,0.10399003
0.0,0.0,0.0,0.0,18-45-06,0.06534529,-0.010381699,-0.19121265,232.0,0.15801434,-0.07044803,0.10399003
0.0,0.0,0.0,0.0,18-45-06,0.06534529,-0.010381699,-0.19121265,232.0,0.15801434,-0.07044803,0.10399003
0.0,0.0,0.0,0.0,18-45-06,0.04442358,-0.027049482,-0.16774273,232.0,0.15801434,-0.07044803,0.10399003
0.0,0.0,0.0,0.0,18-45-06,0.04442358,-0.027049482,-0.16774273,232.0,0.15801434,-0.07044803,0.10399003
0.0,0.0,0.0,0.0,18-45-06,0.04442358,-0.027049482,-0.16774273,232.0,0.15801434,-0.07044803,0.10399003
0.0,0.0,0.0,0.0,18-45-06,0.55304146,-0.0844422,-0.2204895,231.0,0.15801434,-0.07044803,0.10399003
0.0,0.0,0.0,0.0,18-45-06,0.55304146,-0.0844422,-0.2204895,231.0,0.15801434,-0.07044803,0.10399003
0.0,0.0,0.0,0.0,18-45-06,0.49242353,-0.10282153,-0.15523672,231.0,0.15801434,-0.07044803,0.10399003
0.0,0.0,0.0,0.0,18-45-06,0.49242353,-0.10282153,-0.15523672,231.0,0.15801434,-0.07044803,0.10399003
0.0,0.0,0.0,0.0,18-45-06,0.42322636,-0.104515254,-0.08225155,231.0,0.15801434,-0.07044803,0.10399003
0.0,0.0,0.0,0.0,18-45-06,0.42322636,-0.104515254,-0.08225155,231.0,0.15801434,-0.07044803,0.10399003
0.0,0.0,0.0,0.0,18-45-06,0.42322636,-0.104515254,-0.08225155,231.0,0.15801434,-0.07044803,0.10399003
0.0,0.0,0.0,0.0,18-45-06,0.3643875,-0.089211166,-0.021588326,232.0,0.15801434,-0.07044803,0.10399003
0.0,0.0,0.0,0.0,18-45-06,0.3643875,-0.089211166,-0.021588326,232.0,0.15801434,-0.07044803,0.10399003
0.0,0.0,0.0,0.0,18-45-06,0.3643875,-0.089211166,-0.021588326,232.0,0.15801434,-0.07044803,0.10399003
0.0,0.0,0.0,0.0,18-45-06,0.56550455,-0.12153858,-0.63246155,231.0,0.15801434,-0.07044803,0.10399003
0.0,0.0,0.0,0.0,18-45-06,0.56550455,-0.12153858,-0.63246155,231.0,0.15801434,-0.07044803,0.10399003
0.0,0.0,0.0,0.0,18-45-06,0.56550455,-0.12153858,-0.63246155,231.0,0.15801434,-0.07044803,0.10399003
0.0,0.0,0.0,0.0,18-45-06,0.56550455,-0.12153858,-0.63246155,231.0,0.15801434,-0.07044803,0.10399003
0.0,0.0,0.0,0.0,18-45-06,0.56550455,-0.12153858,-0.63246155,231.0,0.15801434,-0.07044803,0.10399003
0.0,0.0,0.0,0.0,18-45-06,0.49797964,-0.095603645,-0.5610609,231.0,-0.12909232,-0.50049716,0.1204834
0.0,0.0,0.0,0.0,18-45-06,0.49797964,-0.095603645,-0.5610609,231.0,-0.12909232,-0.50049716,0.1204834
0.0,0.0,0.0,0.0,18-45-06,0.49797964,-0.095603645,-0.5610609,231.0,-0.12909232,-0.50049716,0.1204834
0.0,0.0,0.0,0.0,18-45-06,0.40789127,-0.015116036,-0.4697795,231.0,-0.12909232,-0.50049716,0.1204834
0.0,0.0,0.0,0.0,18-45-06,0.40789127,-0.015116036,-0.4697795,231.0,-0.12909232,-0.50049716,0.1204834
0.0,0.0,0.0,0.0,18-45-06,0.40789127,-0.015116036,-0.4697795,231.0,-0.12909232,-0.50049716,0.1204834
0.0,0.0,0.0,0.0,18-45-06,0.36722374,0.027272046,-0.42819595,231.0,-0.12909232,-0.50049716,0.1204834
0.0,0.0,0.0,0.0,18-45-06,0.36722374,0.027272046,-0.42819595,231.0,-0.12909232,-0.50049716,0.1204834
0.0,0.0,0.0,0.0,18-45-06,0.36722374,0.027272046,-0.42819595,231.0,-0.12909232,-0.50049716,0.1204834
0.0,0.0,0.0,0.0,18-45-06,0.19714212,-0.50781643,0.034354687,232.0,-0.12909232,-0.50049716,0.1204834
0.0,0.0,0.0,0.0,18-45-06,0.19714212,-0.50781643,0.034354687,232.0,-0.12909232,-0.50049716,0.1204834
0.0,0.0,0.0,0.0,18-45-06,0.17022467,-0.4725516,0.061901093,232.0,-0.12909232,-0.50049716,0.1204834
0.0,0.0,0.0,0.0,18-45-06,0.16784763,-0.42784885,0.05945587,232.0,-0.12909232,-0.50049716,0.1204834
0.0,0.0,0.0,0.0,18-45-06,0.16784763,-0.42784885,0.05945587,232.0,-0.12909232,-0.50049716,0.1204834
0.0,0.0,0.0,0.0,18-45-06,0.16784763,-0.42784885,0.05945587,232.0,-0.12909232,-0.50049716,0.1204834
0.0,0.0,0.0,0.0,18-45-06,0.16784763,-0.42784885,0.05945587,232.0,-0.12909232,-0.50049716,0.1204834
0.0,0.0,0.0,0.0,18-45-06,0.16887379,-0.37614974,0.052527428,232.0,-0.12909232,-0.50049716,0.1204834
0.0,0.0,0.0,0.0,18-45-06,0.16887379,-0.37614974,0.052527428,232.0,-0.12909232,-0.50049716,0.1204834
0.0,0.0,0.0,0.0,18-45-06,0.16887379,-0.37614974,0.052527428,232.0,-0.12909232,-0.50049716,0.1204834
0.0,0.0,0.0,0.0,18-45-06,-0.14837551,-0.55448914,-4.7683716E-4,233.0,-0.50538534,-0.072891496,-0.07560435
0.0,0.0,0.0,0.0,18-45-06,-0.14837551,-0.55448914,-4.7683716E-4,233.0,-0.50538534,-0.072891496,-0.07560435
0.0,0.0,0.0,0.0,18-45-06,-0.14837551,-0.55448914,-4.7683716E-4,233.0,-0.50538534,-0.072891496,-0.07560435
0.0,0.0,0.0,0.0,18-45-06,-0.14837551,-0.55448914,-4.7683716E-4,233.0,-0.50538534,-0.072891496,-0.07560435
0.0,0.0,0.0,0.0,18-45-06,-0.154284,-0.4987544,0.0017848015,233.0,-0.50538534,-0.072891496,-0.07560435
0.0,0.0,0.0,0.0,18-45-06,-0.154284,-0.4987544,0.0017848015,233.0,-0.50538534,-0.072891496,-0.07560435
0.0,0.0,0.0,0.0,18-45-06,-0.154284,-0.4987544,0.0017848015,233.0,-0.50538534,-0.072891496,-0.07560435
0.0,0.0,0.0,0.0,18-45-06,-0.14984655,-0.43027213,-0.008733749,234.0,-0.50538534,-0.072891496,-0.07560435
0.0,0.0,0.0,0.0,18-45-06,-0.13577366,-0.34912762,-0.03067875,235.0,-0.50538534,-0.072891496,-0.07560435
0.0,0.0,0.0,0.0,18-45-06,-0.13577366,-0.34912762,-0.03067875,235.0,-0.50538534,-0.072891496,-0.07560435
0.0,0.0,0.0,0.0,18-45-06,-0.13577366,-0.34912762,-0.03067875,235.0,-0.50538534,-0.072891496,-0.07560435
0.0,0.0,0.0,0.0,18-45-06,-0.13272047,-0.2677581,-0.038451195,235.0,-0.50538534,-0.072891496,-0.07560435
0.0,0.0,0.0,0.0,18-45-06,-0.13272047,-0.2677581,-0.038451195,235.0,-0.50538534,-0.072891496,-0.07560435
0.0,0.0,0.0,0.0,18-45-06,-0.13272047,-0.2677581,-0.038451195,235.0,-0.50538534,-0.072891496,-0.07560435
0.0,0.0,0.0,0.0,18-45-06,0.35057497,-0.18419322,0.38548422,236.0,-0.50538534,-0.072891496,-0.07560435
0.0,0.0,0.0,0.0,18-45-06,0.35057497,-0.18419322,0.38548422,236.0,-0.50538534,-0.072891496,-0.07560435
0.0,0.0,0.0,0.0,18-45-06,0.36812258,-0.11800241,0.36302376,237.0,-0.50538534,-0.072891496,-0.07560435
0.0,0.0,0.0,0.0,18-45-06,0.37127638,-0.057500154,0.35826588,237.0,-0.50538534,-0.072891496,-0.07560435
0.0,0.0,0.0,0.0,18-45-06,0.37127638,-0.057500154,0.35826588,237.0,-0.50538534,-0.072891496,-0.07560435
0.0,0.0,0.0,0.0,18-45-06,0.37127638,-0.057500154,0.35826588,237.0,-0.50538534,-0.072891496,-0.07560435
0.0,0.0,0.0,0.0,18-45-06,0.37127638,-0.057500154,0.35826588,237.0,-0.50538534,-0.072891496,-0.07560435
0.0,0.0,0.0,0.0,18-45-06,0.37935257,-0.008000644,0.34837723,238.0,-0.50538534,-0.072891496,-0.07560435
0.0,0.0,0.0,0.0,18-45-06,0.37935257,-0.008000644,0.34837723,238.0,-0.50538534,-0.072891496,-0.07560435
0.0,0.0,0.0,0.0,18-45-06,0.37935257,-0.008000644,0.34837723,238.0,-0.50538534,-0.072891496,-0.07560435
0.0,0.0,0.0,0.0,18-45-07,0.029791355,-0.09865152,0.43387985,239.0,-0.4968332,-0.072891496,-0.17028847
0.0,0.0,0.0,0.0,18-45-07,0.029791355,-0.09865152,0.43387985,239.0,-0.4968332,-0.072891496,-0.17028847
0.0,0.0,0.0,0.0,18-45-07,0.029791355,-0.09865152,0.43387985,239.0,-0.4968332,-0.072891496,-0.17028847
0.0,0.0,0.0,0.0,18-45-07,0.029791355,-0.09865152,0.43387985,239.0,-0.4968332,-0.072891496,-0.17028847
0.0,0.0,0.0,0.0,18-45-07,0.028841019,-0.05420491,0.43547297,239.0,-0.4968332,-0.072891496,-0.17028847
0.0,0.0,0.0,0.0,18-45-07,0.028841019,-0.05420491,0.43547297,239.0,-0.4968332,-0.072891496,-0.17028847
0.0,0.0,0.0,0.0,18-45-07,0.028841019,-0.05420491,0.43547297,239.0,-0.4968332,-0.072891496,-0.17028847
0.0,0.0,0.0,0.0,18-45-07,0.023444176,-0.021878518,0.44233465,240.0,-0.4968332,-0.072891496,-0.17028847
0.0,0.0,0.0,0.0,18-45-07,0.009821892,-0.0045068115,0.4587283,240.0,-0.4968332,-0.072891496,-0.17028847
0.0,0.0,0.0,0.0,18-45-07,-0.015051842,0.008676201,0.48848724,241.0,-0.4968332,-0.072891496,-0.17028847
0.0,0.0,0.0,0.0,18-45-07,-0.015051842,0.008676201,0.48848724,241.0,-0.4968332,-0.072891496,-0.17028847
0.0,0.0,0.0,0.0,18-45-07,-0.015051842,0.008676201,0.48848724,241.0,-0.4968332,-0.072891496,-0.17028847
0.0,0.0,0.0,0.0,18-45-07,-0.015051842,0.008676201,0.48848724,241.0,-0.4968332,-0.072891496,-0.17028847
0.0,0.0,0.0,0.0,18-45-07,-0.015051842,0.008676201,0.48848724,241.0,-0.4968332,-0.072891496,-0.17028847
0.0,0.0,0.0,0.0,18-45-07,0.07328892,-0.108368486,0.3245721,241.0,-0.4968332,-0.072891496,-0.17028847
0.0,0.0,0.0,0.0,18-45-07,0.07328892,-0.108368486,0.3245721,241.0,-0.4968332,-0.072891496,-0.17028847
0.0,0.0,0.0,0.0,18-45-07,0.012885094,-0.09625733,0.3981161,242.0,-0.4968332,-0.072891496,-0.17028847
0.0,0.0,0.0,0.0,18-45-07,0.012885094,-0.09625733,0.3981161,242.0,-0.4968332,-0.072891496,-0.17028847
0.0,0.0,0.0,0.0,18-45-07,0.012885094,-0.09625733,0.3981161,242.0,-0.4968332,-0.072891496,-0.17028847
0.0,0.0,0.0,0.0,18-45-07,0.012885094,-0.09625733,0.3981161,242.0,-0.4968332,-0.072891496,-0.17028847
0.0,0.0,0.0,0.0,18-45-07,0.012885094,-0.09625733,0.3981161,242.0,-0.4968332,-0.072891496,-0.17028847
0.0,0.0,0.0,0.0,18-45-07,-0.006205559,-0.08346361,0.4219246,242.0,-0.20300701,-0.08144361,-0.05972185
0.0,0.0,0.0,0.0,18-45-07,-0.006205559,-0.08346361,0.4219246,242.0,-0.20300701,-0.08144361,-0.05972185
0.0,0.0,0.0,0.0,18-45-07,-0.006205559,-0.08346361,0.4219246,242.0,-0.20300701,-0.08144361,-0.05972185
0.0,0.0,0.0,0.0,18-45-07,-0.07435894,-0.18612142,0.3260498,243.0,-0.20300701,-0.08144361,-0.05972185
0.0,0.0,0.0,0.0,18-45-07,-0.07435894,-0.18612142,0.3260498,243.0,-0.20300701,-0.08144361,-0.05972185
0.0,0.0,0.0,0.0,18-45-07,-0.07435894,-0.18612142,0.3260498,243.0,-0.20300701,-0.08144361,-0.05972185
0.0,0.0,0.0,0.0,18-45-07,-0.119618416,-0.1855933,0.38305855,243.0,-0.20300701,-0.08144361,-0.05972185
0.0,0.0,0.0,0.0,18-45-07,-0.119618416,-0.1855933,0.38305855,243.0,-0.20300701,-0.08144361,-0.05972185
0.0,0.0,0.0,0.0,18-45-07,-0.119618416,-0.1855933,0.38305855,243.0,-0.20300701,-0.08144361,-0.05972185
0.0,0.0,0.0,0.0,18-45-07,-0.119618416,-0.1855933,0.41684866,243.0,-0.20300701,-0.08144361,-0.05972185
0.0,0.0,0.0,0.0,18-45-07,-0.1459527,-0.17887627,0.41684866,243.0,-0.20300701,-0.08144361,-0.05972185
0.0,0.0,0.0,0.0,18-45-07,-0.16488504,-0.17056145,0.441463,243.0,-0.20300701,-0.08144361,-0.05972185
0.0,0.0,0.0,0.0,18-45-07,-0.18784428,-0.17036155,0.4711671,243.0,-0.20300701,-0.08144361,-0.05972185
0.0,0.0,0.0,0.0,18-45-07,-0.18784428,-0.17036155,0.4711671,243.0,-0.20300701,-0.08144361,-0.05972185
0.0,0.0,0.0,0.0,18-45-07,-0.18784428,-0.17036155,0.4711671,243.0,-0.20300701,-0.08144361,-0.05972185
0.0,0.0,0.0,0.0,18-45-07,-0.18784428,-0.17036155,0.4711671,243.0,-0.20300701,-0.08144361,-0.05972185
0.0,0.0,0.0,0.0,18-45-07,-0.40860558,-0.5465739,0.5870962,244.0,-0.20300701,-0.08144361,-0.05972185
0.0,0.0,0.0,0.0,18-45-07,-0.40860558,-0.5465739,0.5870962,244.0,-0.20300701,-0.08144361,-0.05972185
0.0,0.0,0.0,0.0,18-45-07,-0.40860558,-0.5465739,0.5870962,244.0,-0.20300701,-0.08144361,-0.05972185
0.0,0.0,0.0,0.0,18-45-07,-0.4592209,-0.5334356,0.65505314,244.0,-0.105268575,-0.13519976,0.011749382
0.0,0.0,0.0,0.0,18-45-07,-0.4592209,-0.5334356,0.65505314,244.0,-0.105268575,-0.13519976,0.011749382
0.0,0.0,0.0,0.0,18-45-07,-0.4592209,-0.5334356,0.65505314,244.0,-0.105268575,-0.13519976,0.011749382
0.0,0.0,0.0,0.0,18-45-07,-0.4592209,-0.5334356,0.65505314,244.0,-0.105268575,-0.13519976,0.011749382
0.0,0.0,0.0,0.0,18-45-07,-0.47538042,-0.5161719,0.677567,244.0,-0.105268575,-0.13519976,0.011749382
0.0,0.0,0.0,0.0,18-45-07,-0.47538042,-0.5161719,0.677567,244.0,-0.105268575,-0.13519976,0.011749382
0.0,0.0,0.0,0.0,18-45-07,-0.47538042,-0.5161719,0.677567,244.0,-0.105268575,-0.13519976,0.011749382
0.0,0.0,0.0,0.0,18-45-07,-0.47538042,-0.5161719,0.677567,244.0,-0.105268575,-0.13519976,0.011749382
0.0,0.0,0.0,0.0,18-45-07,-0.26795292,-0.22218174,0.39734936,244.0,-0.105268575,-0.13519976,0.011749382
0.0,0.0,0.0,0.0,18-45-07,-0.26795292,-0.22218174,0.39734936,244.0,-0.105268575,-0.13519976,0.011749382
0.0,0.0,0.0,0.0,18-45-07,-0.26795292,-0.22218174,0.39734936,244.0,-0.105268575,-0.13519976,0.011749382
0.0,0.0,0.0,0.0,18-45-07,-0.28595877,-0.20068666,0.42351007,244.0,-0.105268575,-0.13519976,0.011749382
0.0,0.0,0.0,0.0,18-45-07,-0.28595877,-0.20068666,0.42351007,244.0,-0.105268575,-0.13519976,0.011749382
0.0,0.0,0.0,0.0,18-45-07,-0.28933096,-0.18362886,0.42918396,244.0,-0.105268575,-0.13519976,0.011749382
0.0,0.0,0.0,0.0,18-45-07,-0.28933096,-0.18362886,0.42918396,244.0,-0.105268575,-0.13519976,0.011749382
0.0,0.0,0.0,0.0,18-45-07,-0.28933096,-0.18362886,0.42918396,244.0,-0.105268575,-0.13519976,0.011749382
0.0,0.0,0.0,0.0,18-45-07,-0.29340124,-0.1679362,0.43581343,245.0,-0.105268575,-0.13519976,0.011749382
0.0,0.0,0.0,0.0,18-45-07,-0.31186962,-0.15578383,0.46249628,245.0,-0.105268575,-0.13519976,0.011749382
0.0,0.0,0.0,0.0,18-45-07,-0.31186962,-0.15578383,0.46249628,245.0,-0.105268575,-0.13519976,0.011749382
0.0,0.0,0.0,0.0,18-45-07,-0.31186962,-0.15578383,0.46249628,245.0,-0.105268575,-0.13519976,0.011749382
0.0,0.0,0.0,0.0,18-45-07,-0.31186962,-0.15578383,0.46249628,245.0,-0.105268575,-0.13519976,0.011749382
0.0,0.0,0.0,0.0,18-45-07,-0.05547762,0.10618028,0.22177601,245.0,-0.105268575,-0.13519976,0.011749382
0.0,0.0,0.0,0.0,18-45-07,-0.05547762,0.10618028,0.22177601,245.0,-0.105268575,-0.13519976,0.011749382
0.0,0.0,0.0,0.0,18-45-07,-0.05547762,0.10618028,0.22177601,245.0,-0.105268575,-0.13519976,0.011749382
0.0,0.0,0.0,0.0,18-45-07,-0.06560516,0.10835484,0.23625278,245.0,-0.053955894,-0.0692263,-0.053002335
0.0,0.0,0.0,0.0,18-45-07,-0.06560516,0.10835484,0.23625278,245.0,-0.053955894,-0.0692263,-0.053002335
0.0,0.0,0.0,0.0,18-45-07,-0.06560516,0.10835484,0.23625278,245.0,-0.053955894,-0.0692263,-0.053002335
0.0,0.0,0.0,0.0,18-45-07,-0.06560516,0.10835484,0.23625278,245.0,-0.053955894,-0.0692263,-0.053002335
0.0,0.0,0.0,0.0,18-45-07,-0.081700325,0.097791076,0.25843143,245.0,-0.053955894,-0.0692263,-0.053002335
0.0,0.0,0.0,0.0,18-45-07,-0.081700325,0.097791076,0.25843143,245.0,-0.053955894,-0.0692263,-0.053002335
0.0,0.0,0.0,0.0,18-45-07,-0.081700325,0.097791076,0.25843143,245.0,-0.053955894,-0.0692263,-0.053002335
0.0,0.0,0.0,0.0,18-45-07,-0.100907326,0.09091067,0.2854867,245.0,-0.053955894,-0.0692263,-0.053002335
0.0,0.0,0.0,0.0,18-45-07,0.3390503,0.3936599,-0.19619465,245.0,-0.053955894,-0.0692263,-0.053002335
0.0,0.0,0.0,0.0,18-45-07,0.3390503,0.3936599,-0.19619465,245.0,-0.053955894,-0.0692263,-0.053002335
0.0,0.0,0.0,0.0,18-45-07,0.3390503,0.3936599,-0.19619465,245.0,-0.053955894,-0.0692263,-0.053002335
0.0,0.0,0.0,0.0,18-45-07,0.32373333,0.38680708,-0.17455196,245.0,-0.053955894,-0.0692263,-0.053002335
0.0,0.0,0.0,0.0,18-45-07,0.32373333,0.38680708,-0.17455196,245.0,-0.053955894,-0.0692263,-0.053002335
0.0,0.0,0.0,0.0,18-45-07,0.32373333,0.38680708,-0.17455196,245.0,-0.053955894,-0.0692263,-0.053002335
0.0,0.0,0.0,0.0,18-45-07,0.29081154,0.3657149,-0.12793636,245.0,-0.053955894,-0.0692263,-0.053002335
0.0,0.0,0.0,0.0,18-45-07,0.29081154,0.3657149,-0.12793636,245.0,-0.053955894,-0.0692263,-0.053002335
0.0,0.0,0.0,0.0,18-45-07,0.24667168,0.32566988,-0.06502724,246.0,-0.053955894,-0.0692263,-0.053002335
0.0,0.0,0.0,0.0,18-45-07,0.24667168,0.32566988,-0.06502724,246.0,-0.053955894,-0.0692263,-0.053002335
0.0,0.0,0.0,0.0,18-45-07,0.24667168,0.32566988,-0.06502724,246.0,-0.053955894,-0.0692263,-0.053002335
0.0,0.0,0.0,0.0,18-45-07,0.24667168,0.32566988,-0.06502724,246.0,-0.053955894,-0.0692263,-0.053002335
0.0,0.0,0.0,0.0,18-45-07,0.24667168,0.32566988,-0.06502724,246.0,-0.053955894,-0.0692263,-0.053002335
0.0,0.0,0.0,0.0,18-45-07,0.16587543,0.025428742,0.09688759,246.0,0.043782543,-0.09549351,-0.13730174
0.0,0.0,0.0,0.0,18-45-07,0.16587543,0.025428742,0.09688759,246.0,0.043782543,-0.09549351,-0.13730174
0.0,0.0,0.0,0.0,18-45-07,0.16587543,0.025428742,0.09688759,246.0,0.043782543,-0.09549351,-0.13730174
0.0,0.0,0.0,0.0,18-45-07,0.14268589,-0.050153002,0.12837219,246.0,0.043782543,-0.09549351,-0.13730174
0.0,0.0,0.0,0.0,18-45-07,0.14268589,-0.050153002,0.12837219,246.0,0.043782543,-0.09549351,-0.13730174
0.0,0.0,0.0,0.0,18-45-07,0.14268589,-0.050153002,0.12837219,246.0,0.043782543,-0.09549351,-0.13730174
0.0,0.0,0.0,0.0,18-45-07,0.14268589,-0.050153002,0.12837219,246.0,0.043782543,-0.09549351,-0.13730174
0.0,0.0,0.0,0.0,18-45-07,0.14728832,-0.10921411,0.11968899,245.0,0.043782543,-0.09549351,-0.13730174
0.0,0.0,0.0,0.0,18-45-07,0.14728832,-0.10921411,0.11968899,245.0,0.043782543,-0.09549351,-0.13730174
0.0,0.0,0.0,0.0,18-45-07,0.14728832,-0.10921411,0.11968899,245.0,0.043782543,-0.09549351,-0.13730174
0.0,0.0,0.0,0.0,18-45-07,0.15154266,-0.1766805,0.11205006,245.0,0.043782543,-0.09549351,-0.13730174
0.0,0.0,0.0,0.0,18-45-07,-0.006378174,-0.39975724,-0.08229399,245.0,0.043782543,-0.09549351,-0.13730174
0.0,0.0,0.0,0.0,18-45-07,-0.006378174,-0.39975724,-0.08229399,245.0,0.043782543,-0.09549351,-0.13730174
0.0,0.0,0.0,0.0,18-45-07,0.010908127,-0.52365965,-0.10600233,245.0,0.043782543,-0.09549351,-0.13730174
0.0,0.0,0.0,0.0,18-45-07,0.010908127,-0.52365965,-0.10600233,245.0,0.043782543,-0.09549351,-0.13730174
0.0,0.0,0.0,0.0,18-45-07,0.010908127,-0.52365965,-0.10600233,245.0,0.043782543,-0.09549351,-0.13730174
0.0,0.0,0.0,0.0,18-45-07,0.010908127,-0.52365965,-0.10600233,245.0,0.043782543,-0.09549351,-0.13730174
0.0,0.0,0.0,0.0,18-45-07,0.028656006,-0.66461444,-0.12657261,244.0,0.043782543,-0.09549351,-0.13730174
0.0,0.0,0.0,0.0,18-45-07,0.028656006,-0.66461444,-0.12657261,244.0,0.043782543,-0.09549351,-0.13730174
0.0,0.0,0.0,0.0,18-45-07,0.08590031,-0.91551065,-0.1911974,243.0,0.7383363,0.20627393,-0.3168961
0.0,0.0,0.0,0.0,18-45-07,0.08590031,-0.91551065,-0.1911974,243.0,0.7383363,0.20627393,-0.3168961
0.0,0.0,0.0,0.0,18-45-07,0.08590031,-0.91551065,-0.1911974,243.0,0.7383363,0.20627393,-0.3168961
0.0,0.0,0.0,0.0,18-45-07,0.08590031,-0.91551065,-0.1911974,243.0,0.7383363,0.20627393,-0.3168961
0.0,0.0,0.0,0.0,18-45-07,0.08590031,-0.91551065,-0.1911974,243.0,0.7383363,0.20627393,-0.3168961
0.0,0.0,0.0,0.0,18-45-07,-0.4337921,-0.8359607,-0.37000036,243.0,0.7383363,0.20627393,-0.3168961
0.0,0.0,0.0,0.0,18-45-07,-0.4337921,-0.8359607,-0.37000036,243.0,0.7383363,0.20627393,-0.3168961
0.0,0.0,0.0,0.0,18-45-07,-0.4337921,-0.8359607,-0.37000036,243.0,0.7383363,0.20627393,-0.3168961
0.0,0.0,0.0,0.0,18-45-07,-0.3522544,-1.0765948,-0.4514842,242.0,0.7383363,0.20627393,-0.3168961
0.0,0.0,0.0,0.0,18-45-07,-0.3522544,-1.0765948,-0.4514842,242.0,0.7383363,0.20627393,-0.3168961
0.0,0.0,0.0,0.0,18-45-07,-0.3522544,-1.0765948,-0.4514842,242.0,0.7383363,0.20627393,-0.3168961
0.0,0.0,0.0,0.0,18-45-07,-0.3080554,-1.1917845,-0.49322224,242.0,0.7383363,0.20627393,-0.3168961
0.0,0.0,0.0,0.0,18-45-07,-0.3080554,-1.1917845,-0.49322224,242.0,0.7383363,0.20627393,-0.3168961
0.0,0.0,0.0,0.0,18-45-07,-0.3080554,-1.1917845,-0.49322224,242.0,0.7383363,0.20627393,-0.3168961
0.0,0.0,0.0,0.0,18-45-07,-0.3080554,-1.1917845,-0.49322224,242.0,0.7383363,0.20627393,-0.3168961
0.0,0.0,0.0,0.0,18-45-07,-0.27529287,-1.3007681,-0.5176387,241.0,0.7383363,0.20627393,-0.3168961
0.0,0.0,0.0,0.0,18-45-08,-0.3585024,-0.5986906,-0.24182558,241.0,0.7383363,0.20627393,-0.3168961
0.0,0.0,0.0,0.0,18-45-08,-0.33703232,-0.67779946,-0.25355434,241.0,0.7383363,0.20627393,-0.3168961
0.0,0.0,0.0,0.0,18-45-08,-0.33703232,-0.67779946,-0.25355434,241.0,0.7383363,0.20627393,-0.3168961
0.0,0.0,0.0,0.0,18-45-08,-0.33703232,-0.67779946,-0.25355434,241.0,0.7383363,0.20627393,-0.3168961
0.0,0.0,0.0,0.0,18-45-08,-0.33703232,-0.67779946,-0.25355434,241.0,0.7383363,0.20627393,-0.3168961
0.0,0.0,0.0,0.0,18-45-08,-0.3052411,-0.73107433,-0.28423977,241.0,0.7383363,0.20627393,-0.3168961
0.0,0.0,0.0,0.0,18-45-08,-0.3052411,-0.73107433,-0.28423977,241.0,0.7383363,0.20627393,-0.3168961
0.0,0.0,0.0,0.0,18-45-08,-0.3052411,-0.73107433,-0.28423977,241.0,0.7383363,0.20627393,-0.3168961
0.0,0.0,0.0,0.0,18-45-08,-0.258348,-0.7992984,-0.33056402,242.0,-0.05578849,0.115255,-0.25275525
0.0,0.0,0.0,0.0,18-45-08,-0.258348,-0.7992984,-0.33056402,242.0,-0.05578849,0.115255,-0.25275525
0.0,0.0,0.0,0.0,18-45-08,-0.258348,-0.7992984,-0.33056402,242.0,-0.05578849,0.115255,-0.25275525
0.0,0.0,0.0,0.0,18-45-08,-0.258348,-0.7992984,-0.33056402,242.0,-0.05578849,0.115255,-0.25275525
0.0,0.0,0.0,0.0,18-45-08,-0.90847254,-0.33029163,0.2116971,242.0,-0.05578849,0.115255,-0.25275525
0.0,0.0,0.0,0.0,18-45-08,-0.90847254,-0.33029163,0.2116971,242.0,-0.05578849,0.115255,-0.25275525
0.0,0.0,0.0,0.0,18-45-08,-0.90847254,-0.33029163,0.2116971,242.0,-0.05578849,0.115255,-0.25275525
0.0,0.0,0.0,0.0,18-45-08,-0.90847254,-0.33029163,0.2116971,242.0,-0.05578849,0.115255,-0.25275525
0.0,0.0,0.0,0.0,18-45-08,-0.84187555,-0.32676506,0.12336874,243.0,-0.05578849,0.115255,-0.25275525
0.0,0.0,0.0,0.0,18-45-08,-0.84187555,-0.32676506,0.12336874,243.0,-0.05578849,0.115255,-0.25275525
0.0,0.0,0.0,0.0,18-45-08,-0.84187555,-0.32676506,0.12336874,243.0,-0.05578849,0.115255,-0.25275525
0.0,0.0,0.0,0.0,18-45-08,-0.8130288,-0.32904434,0.08667803,243.0,-0.05578849,0.115255,-0.25275525
0.0,0.0,0.0,0.0,18-45-08,-0.8130288,-0.32904434,0.08667803,243.0,-0.05578849,0.115255,-0.25275525
0.0,0.0,0.0,0.0,18-45-08,-0.8130288,-0.32904434,0.08667803,243.0,-0.05578849,0.115255,-0.25275525
0.0,0.0,0.0,0.0,18-45-08,-0.8130288,-0.32904434,0.08667803,243.0,-0.05578849,0.115255,-0.25275525
0.0,0.0,0.0,0.0,18-45-08,-0.79498816,-0.3382504,0.065824986,243.0,-0.05578849,0.115255,-0.25275525
0.0,0.0,0.0,0.0,18-45-08,-0.36168098,-0.2304548,0.40902758,243.0,-0.05578849,0.115255,-0.25275525
0.0,0.0,0.0,0.0,18-45-08,-0.33690357,-0.2470324,0.38174582,244.0,-0.05578849,0.115255,-0.25275525
0.0,0.0,0.0,0.0,18-45-08,-0.33690357,-0.2470324,0.38174582,244.0,-0.05578849,0.115255,-0.25275525
0.0,0.0,0.0,0.0,18-45-08,-0.33690357,-0.2470324,0.38174582,244.0,-0.05578849,0.115255,-0.25275525
0.0,0.0,0.0,0.0,18-45-08,-0.33690357,-0.2470324,0.38174582,244.0,-0.05578849,0.115255,-0.25275525
0.0,0.0,0.0,0.0,18-45-08,-0.33690357,-0.2470324,0.38174582,244.0,-0.05578849,0.115255,-0.25275525
0.0,0.0,0.0,0.0,18-45-08,-0.31454754,-0.26079857,0.35707188,244.0,-0.011806193,0.11953106,-0.12080837
0.0,0.0,0.0,0.0,18-45-08,-0.31454754,-0.26079857,0.35707188,244.0,-0.011806193,0.11953106,-0.12080837
0.0,0.0,0.0,0.0,18-45-08,-0.2646699,-0.30569077,0.30637932,244.0,-0.011806193,0.11953106,-0.12080837
0.0,0.0,0.0,0.0,18-45-08,-0.2646699,-0.30569077,0.30637932,244.0,-0.011806193,0.11953106,-0.12080837
0.0,0.0,0.0,0.0,18-45-08,-0.2646699,-0.30569077,0.30637932,244.0,-0.011806193,0.11953106,-0.12080837
0.0,0.0,0.0,0.0,18-45-08,-0.2646699,-0.30569077,0.30637932,244.0,-0.011806193,0.11953106,-0.12080837
0.0,0.0,0.0,0.0,18-45-08,-0.109807014,0.18694258,0.3741827,244.0,-0.011806193,0.11953106,-0.12080837
0.0,0.0,0.0,0.0,18-45-08,-0.109807014,0.18694258,0.3741827,244.0,-0.011806193,0.11953106,-0.12080837
0.0,0.0,0.0,0.0,18-45-08,-0.109807014,0.18694258,0.3741827,244.0,-0.011806193,0.11953106,-0.12080837
0.0,0.0,0.0,0.0,18-45-08,-0.109807014,0.18694258,0.3741827,244.0,-0.011806193,0.11953106,-0.12080837
0.0,0.0,0.0,0.0,18-45-08,-0.039759636,0.05647564,0.32494164,244.0,-0.011806193,0.11953106,-0.12080837
0.0,0.0,0.0,0.0,18-45-08,-0.013392925,-0.016382456,0.3143077,244.0,-0.011806193,0.11953106,-0.12080837
0.0,0.0,0.0,0.0,18-45-08,-0.013392925,-0.016382456,0.3143077,244.0,-0.011806193,0.11953106,-0.12080837
0.0,0.0,0.0,0.0,18-45-08,-0.013392925,-0.016382456,0.3143077,244.0,-0.011806193,0.11953106,-0.12080837
0.0,0.0,0.0,0.0,18-45-08,-0.013392925,-0.016382456,0.3143077,244.0,-0.011806193,0.11953106,-0.12080837
0.0,0.0,0.0,0.0,18-45-08,-0.013392925,-0.016382456,0.3143077,244.0,-0.011806193,0.11953106,-0.12080837
0.0,0.0,0.0,0.0,18-45-08,0.012491703,-0.084107876,0.3036785,244.0,-0.011806193,0.11953106,-0.12080837
0.0,0.0,0.0,0.0,18-45-08,0.012491703,-0.084107876,0.3036785,244.0,-0.011806193,0.11953106,-0.12080837
0.0,0.0,0.0,0.0,18-45-08,-0.14023018,0.2029804,-0.01601839,244.0,-0.011806193,0.11953106,-0.12080837
0.0,0.0,0.0,0.0,18-45-08,-0.12806034,0.13456511,-0.008573532,244.0,0.24781154,0.0431729,-0.2277098
0.0,0.0,0.0,0.0,18-45-08,-0.12806034,0.13456511,-0.008573532,244.0,0.24781154,0.0431729,-0.2277098
0.0,0.0,0.0,0.0,18-45-08,-0.12806034,0.13456511,-0.008573532,244.0,0.24781154,0.0431729,-0.2277098
0.0,0.0,0.0,0.0,18-45-08,-0.12806034,0.13456511,-0.008573532,244.0,0.24781154,0.0431729,-0.2277098
0.0,0.0,0.0,0.0,18-45-08,-0.113226414,0.07172322,-0.0053839684,244.0,0.24781154,0.0431729,-0.2277098
0.0,0.0,0.0,0.0,18-45-08,-0.113226414,0.07172322,-0.0053839684,244.0,0.24781154,0.0431729,-0.2277098
0.0,0.0,0.0,0.0,18-45-08,-0.113226414,0.07172322,-0.0053839684,244.0,0.24781154,0.0431729,-0.2277098
0.0,0.0,0.0,0.0,18-45-08,-0.09049702,-0.060865402,0.013710022,244.0,0.24781154,0.0431729,-0.2277098
0.0,0.0,0.0,0.0,18-45-08,-0.09049702,-0.060865402,0.013710022,244.0,0.24781154,0.0431729,-0.2277098
0.0,0.0,0.0,0.0,18-45-08,-0.09049702,-0.060865402,0.013710022,244.0,0.24781154,0.0431729,-0.2277098
0.0,0.0,0.0,0.0,18-45-08,-0.5585561,0.20999575,-0.1564889,243.0,0.24781154,0.0431729,-0.2277098
0.0,0.0,0.0,0.0,18-45-08,-0.5585561,0.20999575,-0.1564889,243.0,0.24781154,0.0431729,-0.2277098
0.0,0.0,0.0,0.0,18-45-08,-0.5585561,0.20999575,-0.1564889,243.0,0.24781154,0.0431729,-0.2277098
0.0,0.0,0.0,0.0,18-45-08,-0.5585561,0.20999575,-0.1564889,243.0,0.24781154,0.0431729,-0.2277098
0.0,0.0,0.0,0.0,18-45-08,-0.54376364,0.14289069,-0.14872646,243.0,0.24781154,0.0431729,-0.2277098
0.0,0.0,0.0,0.0,18-45-08,-0.5214987,0.07078624,-0.1470294,243.0,0.24781154,0.0431729,-0.2277098
0.0,0.0,0.0,0.0,18-45-08,-0.49494553,-0.00511837,-0.14790344,243.0,0.24781154,0.0431729,-0.2277098
0.0,0.0,0.0,0.0,18-45-08,-0.49494553,-0.00511837,-0.14790344,243.0,0.24781154,0.0431729,-0.2277098
0.0,0.0,0.0,0.0,18-45-08,-0.49494553,-0.00511837,-0.14790344,243.0,0.24781154,0.0431729,-0.2277098
0.0,0.0,0.0,0.0,18-45-08,-0.49494553,-0.00511837,-0.14790344,243.0,0.24781154,0.0431729,-0.2277098
0.0,0.0,0.0,0.0,18-45-08,-0.49494553,-0.00511837,-0.14790344,243.0,0.24781154,0.0431729,-0.2277098
0.0,0.0,0.0,0.0,18-45-08,-0.4661231,-0.085500956,-0.14850283,243.0,0.24781154,0.0431729,-0.2277098
0.0,0.0,0.0,0.0,18-45-08,-0.4661231,-0.085500956,-0.14850283,243.0,0.24781154,0.0431729,-0.2277098
0.0,0.0,0.0,0.0,18-45-08,-0.023365498,0.3805766,-0.076406,243.0,0.4402341,-0.040515635,-0.27657902
0.0,0.0,0.0,0.0,18-45-08,-0.013386726,0.29250145,-0.049031258,243.0,0.4402341,-0.040515635,-0.27657902
0.0,0.0,0.0,0.0,18-45-08,-0.013386726,0.29250145,-0.049031258,243.0,0.4402341,-0.040515635,-0.27657902
0.0,0.0,0.0,0.0,18-45-08,-0.013386726,0.29250145,-0.049031258,243.0,0.4402341,-0.040515635,-0.27657902
0.0,0.0,0.0,0.0,18-45-08,-0.013386726,0.29250145,-0.049031258,243.0,0.4402341,-0.040515635,-0.27657902
0.0,0.0,0.0,0.0,18-45-08,0.007226467,0.22279811,-0.041285038,243.0,0.4402341,-0.040515635,-0.27657902
0.0,0.0,0.0,0.0,18-45-08,0.007226467,0.22279811,-0.041285038,243.0,0.4402341,-0.040515635,-0.27657902
0.0,0.0,0.0,0.0,18-45-08,0.007226467,0.22279811,-0.041285038,243.0,0.4402341,-0.040515635,-0.27657902
0.0,0.0,0.0,0.0,18-45-08,0.049283028,0.09719944,-0.030856133,242.0,0.4402341,-0.040515635,-0.27657902
0.0,0.0,0.0,0.0,18-45-08,0.049283028,0.09719944,-0.030856133,242.0,0.4402341,-0.040515635,-0.27657902
0.0,0.0,0.0,0.0,18-45-08,0.049283028,0.09719944,-0.030856133,242.0,0.4402341,-0.040515635,-0.27657902
0.0,0.0,0.0,0.0,18-45-08,0.049283028,0.09719944,-0.030856133,242.0,0.4402341,-0.040515635,-0.27657902
0.0,0.0,0.0,0.0,18-45-08,-0.33029556,0.48991466,0.14642572,242.0,0.4402341,-0.040515635,-0.27657902
0.0,0.0,0.0,0.0,18-45-08,-0.33029556,0.48991466,0.14642572,242.0,0.4402341,-0.040515635,-0.27657902
0.0,0.0,0.0,0.0,18-45-08,-0.33029556,0.48991466,0.14642572,242.0,0.4402341,-0.040515635,-0.27657902
0.0,0.0,0.0,0.0,18-45-08,-0.33029556,0.48991466,0.14642572,242.0,0.4402341,-0.040515635,-0.27657902
0.0,0.0,0.0,0.0,18-45-08,-0.29511595,0.36415195,0.169281,242.0,0.4402341,-0.040515635,-0.27657902
0.0,0.0,0.0,0.0,18-45-08,-0.2648716,0.2963786,0.169693,242.0,0.4402341,-0.040515635,-0.27657902
0.0,0.0,0.0,0.0,18-45-08,-0.2648716,0.2963786,0.169693,242.0,0.4402341,-0.040515635,-0.27657902
0.0,0.0,0.0,0.0,18-45-08,-0.2648716,0.2963786,0.169693,242.0,0.4402341,-0.040515635,-0.27657902
0.0,0.0,0.0,0.0,18-45-08,-0.2648716,0.2963786,0.169693,242.0,0.4402341,-0.040515635,-0.27657902
0.0,0.0,0.0,0.0,18-45-08,-0.24674845,0.23893714,0.17943478,242.0,0.30156767,0.13968961,-0.15318424
0.0,0.0,0.0,0.0,18-45-08,-0.24674845,0.23893714,0.17943478,242.0,0.30156767,0.13968961,-0.15318424
0.0,0.0,0.0,0.0,18-45-08,-0.24674845,0.23893714,0.17943478,242.0,0.30156767,0.13968961,-0.15318424
0.0,0.0,0.0,0.0,18-45-08,-0.13772869,0.013723612,-0.079061985,241.0,0.30156767,0.13968961,-0.15318424
0.0,0.0,0.0,0.0,18-45-08,-0.10242939,-0.049107313,-0.084730625,241.0,0.30156767,0.13968961,-0.15318424
0.0,0.0,0.0,0.0,18-45-08,-0.10242939,-0.049107313,-0.084730625,241.0,0.30156767,0.13968961,-0.15318424
0.0,0.0,0.0,0.0,18-45-08,-0.10242939,-0.049107313,-0.084730625,241.0,0.30156767,0.13968961,-0.15318424
0.0,0.0,0.0,0.0,18-45-08,-0.07141638,-0.1098125,-0.08586788,241.0,0.30156767,0.13968961,-0.15318424
0.0,0.0,0.0,0.0,18-45-08,-0.07141638,-0.1098125,-0.08586788,241.0,0.30156767,0.13968961,-0.15318424
0.0,0.0,0.0,0.0,18-45-08,-0.07141638,-0.1098125,-0.08586788,241.0,0.30156767,0.13968961,-0.15318424
0.0,0.0,0.0,0.0,18-45-08,-0.07141638,-0.1098125,-0.08586788,241.0,0.30156767,0.13968961,-0.15318424
0.0,0.0,0.0,0.0,18-45-08,-0.010667801,-0.2425003,-0.07773304,241.0,0.30156767,0.13968961,-0.15318424
0.0,0.0,0.0,0.0,18-45-08,-0.010667801,-0.2425003,-0.07773304,241.0,0.30156767,0.13968961,-0.15318424
0.0,0.0,0.0,0.0,18-45-08,-0.010667801,-0.2425003,-0.07773304,241.0,0.30156767,0.13968961,-0.15318424
0.0,0.0,0.0,0.0,18-45-08,0.012916088,0.19657779,-0.15521955,241.0,0.30156767,0.13968961,-0.15318424
0.0,0.0,0.0,0.0,18-45-08,0.012916088,0.19657779,-0.15521955,241.0,0.30156767,0.13968961,-0.15318424
0.0,0.0,0.0,0.0,18-45-08,0.012916088,0.19657779,-0.15521955,241.0,0.30156767,0.13968961,-0.15318424
0.0,0.0,0.0,0.0,18-45-08,0.012916088,0.19657779,-0.15521955,241.0,0.30156767,0.13968961,-0.15318424
0.0,0.0,0.0,0.0,18-45-08,0.04620552,0.14104652,-0.1588049,241.0,0.30156767,0.13968961,-0.15318424
0.0,0.0,0.0,0.0,18-45-08,0.07712269,0.08398056,-0.15811014,241.0,0.30156767,0.13968961,-0.15318424
0.0,0.0,0.0,0.0,18-45-08,0.09788895,0.029787064,-0.14725065,241.0,0.21787913,0.093874715,-0.19716653
0.0,0.0,0.0,0.0,18-45-08,0.09788895,0.029787064,-0.14725065,241.0,0.21787913,0.093874715,-0.19716653
0.0,0.0,0.0,0.0,18-45-08,0.09788895,0.029787064,-0.14725065,241.0,0.21787913,0.093874715,-0.19716653
0.0,0.0,0.0,0.0,18-45-08,0.09788895,0.029787064,-0.14725065,241.0,0.21787913,0.093874715,-0.19716653
0.0,0.0,0.0,0.0,18-45-08,0.12686205,-0.021679401,-0.14667273,241.0,0.21787913,0.093874715,-0.19716653
0.0,0.0,0.0,0.0,18-45-08,0.12686205,-0.021679401,-0.14667273,241.0,0.21787913,0.093874715,-0.19716653
0.0,0.0,0.0,0.0,18-45-08,0.12686205,-0.021679401,-0.14667273,241.0,0.21787913,0.093874715,-0.19716653
0.0,0.0,0.0,0.0,18-45-09,0.3647523,0.39279628,-0.13486433,241.0,0.21787913,0.093874715,-0.19716653
0.0,0.0,0.0,0.0,18-45-09,0.3647523,0.39279628,-0.13486433,241.0,0.21787913,0.093874715,-0.19716653
0.0,0.0,0.0,0.0,18-45-09,0.3647523,0.39279628,-0.13486433,241.0,0.21787913,0.093874715,-0.19716653
0.0,0.0,0.0,0.0,18-45-09,0.3647523,0.39279628,-0.13486433,241.0,0.21787913,0.093874715,-0.19716653
0.0,0.0,0.0,0.0,18-45-09,0.3833971,0.3414116,-0.12130642,241.0,0.21787913,0.093874715,-0.19716653
0.0,0.0,0.0,0.0,18-45-09,0.3833971,0.3414116,-0.12130642,241.0,0.21787913,0.093874715,-0.19716653
0.0,0.0,0.0,0.0,18-45-09,0.3833971,0.3414116,-0.12130642,241.0,0.21787913,0.093874715,-0.19716653
0.0,0.0,0.0,0.0,18-45-09,0.39788294,0.29923534,-0.108893394,241.0,0.21787913,0.093874715,-0.19716653
0.0,0.0,0.0,0.0,18-45-09,0.4203906,0.27608156,-0.11779547,241.0,0.21787913,0.093874715,-0.19716653
0.0,0.0,0.0,0.0,18-45-09,0.16653776,0.49988985,0.13221788,241.0,0.21787913,0.093874715,-0.19716653
0.0,0.0,0.0,0.0,18-45-09,0.16653776,0.49988985,0.13221788,241.0,0.21787913,0.093874715,-0.19716653
0.0,0.0,0.0,0.0,18-45-09,0.16653776,0.49988985,0.13221788,241.0,0.21787913,0.093874715,-0.19716653
0.0,0.0,0.0,0.0,18-45-09,0.16653776,0.49988985,0.13221788,241.0,0.21787913,0.093874715,-0.19716653
0.0,0.0,0.0,0.0,18-45-09,0.16653776,0.49988985,0.13221788,241.0,0.21787913,0.093874715,-0.19716653
0.0,0.0,0.0,0.0,18-45-09,0.16221523,0.4852481,0.14688826,241.0,0.21787913,0.093874715,-0.19716653
0.0,0.0,0.0,0.0,18-45-09,0.16221523,0.4852481,0.14688826,241.0,0.21787913,0.093874715,-0.19716653
0.0,0.0,0.0,0.0,18-45-09,0.16671991,0.46365833,0.15677452,241.0,0.19344454,0.086544335,0.025188418
0.0,0.0,0.0,0.0,18-45-09,0.17574215,0.44506454,0.15976,241.0,0.19344454,0.086544335,0.025188418
0.0,0.0,0.0,0.0,18-45-09,0.17574215,0.44506454,0.15976,241.0,0.19344454,0.086544335,0.025188418
0.0,0.0,0.0,0.0,18-45-09,0.17574215,0.44506454,0.15976,241.0,0.19344454,0.086544335,0.025188418
0.0,0.0,0.0,0.0,18-45-09,0.17574215,0.44506454,0.15976,241.0,0.19344454,0.086544335,0.025188418
0.0,0.0,0.0,0.0,18-45-09,0.17506981,0.43434954,0.16790724,241.0,0.19344454,0.086544335,0.025188418
0.0,0.0,0.0,0.0,18-45-09,0.17506981,0.43434954,0.16790724,241.0,0.19344454,0.086544335,0.025188418
0.0,0.0,0.0,0.0,18-45-09,0.17506981,0.43434954,0.16790724,241.0,0.19344454,0.086544335,0.025188418
0.0,0.0,0.0,0.0,18-45-09,-0.6717019,0.30932808,0.019747257,241.0,0.19344454,0.086544335,0.025188418
0.0,0.0,0.0,0.0,18-45-09,-0.6717019,0.30932808,0.019747257,241.0,0.19344454,0.086544335,0.025188418
0.0,0.0,0.0,0.0,18-45-09,-0.6717019,0.30932808,0.019747257,241.0,0.19344454,0.086544335,0.025188418
0.0,0.0,0.0,0.0,18-45-09,-0.6717019,0.30932808,0.019747257,241.0,0.19344454,0.086544335,0.025188418
0.0,0.0,0.0,0.0,18-45-09,-0.6717019,0.30932808,0.019747257,241.0,0.19344454,0.086544335,0.025188418
0.0,0.0,0.0,0.0,18-45-09,-0.6883993,0.33475733,0.02061367,241.0,0.19344454,0.086544335,0.025188418
0.0,0.0,0.0,0.0,18-45-09,-0.6883993,0.33475733,0.02061367,241.0,0.19344454,0.086544335,0.025188418
0.0,0.0,0.0,0.0,18-45-09,-0.6992059,0.35471344,0.018875122,241.0,0.19344454,0.086544335,0.025188418
0.0,0.0,0.0,0.0,18-45-09,-0.70617056,0.37614107,0.011980057,241.0,0.19344454,0.086544335,0.025188418
0.0,0.0,0.0,0.0,18-45-09,-0.6637535,0.26315022,-0.20003748,241.0,0.19344454,0.086544335,0.025188418
0.0,0.0,0.0,0.0,18-45-09,-0.6637535,0.26315022,-0.20003748,241.0,0.19344454,0.086544335,0.025188418
0.0,0.0,0.0,0.0,18-45-09,-0.6637535,0.26315022,-0.20003748,241.0,0.19344454,0.086544335,0.025188418
0.0,0.0,0.0,0.0,18-45-09,-0.6637535,0.26315022,-0.20003748,241.0,0.19344454,0.086544335,0.025188418
0.0,0.0,0.0,0.0,18-45-09,-0.6637535,0.26315022,-0.20003748,241.0,0.19344454,0.086544335,0.025188418
0.0,0.0,0.0,0.0,18-45-09,-0.67608976,0.28526545,-0.2012868,241.0,-0.11443156,0.045616362,0.08932927
0.0,0.0,0.0,0.0,18-45-09,-0.67608976,0.28526545,-0.2012868,241.0,-0.11443156,0.045616362,0.08932927
0.0,0.0,0.0,0.0,18-45-09,-0.6633668,0.33350086,-0.2473526,241.0,-0.11443156,0.045616362,0.08932927
0.0,0.0,0.0,0.0,18-45-09,-0.6633668,0.33350086,-0.2473526,241.0,-0.11443156,0.045616362,0.08932927
0.0,0.0,0.0,0.0,18-45-09,-0.6633668,0.33350086,-0.2473526,241.0,-0.11443156,0.045616362,0.08932927
0.0,0.0,0.0,0.0,18-45-09,-0.6633668,0.33350086,-0.2473526,241.0,-0.11443156,0.045616362,0.08932927
0.0,0.0,0.0,0.0,18-45-09,-0.6633668,0.33350086,-0.2473526,241.0,-0.11443156,0.045616362,0.08932927
0.0,0.0,0.0,0.0,18-45-09,-0.6582637,0.36086416,-0.27085447,241.0,-0.11443156,0.045616362,0.08932927
0.0,0.0,0.0,0.0,18-45-09,-0.6582637,0.36086416,-0.27085447,241.0,-0.11443156,0.045616362,0.08932927
0.0,0.0,0.0,0.0,18-45-09,-0.6582637,0.36086416,-0.27085447,241.0,-0.11443156,0.045616362,0.08932927
0.0,0.0,0.0,0.0,18-45-09,0.12696743,0.40596294,-0.13871145,241.0,-0.11443156,0.045616362,0.08932927
0.0,0.0,0.0,0.0,18-45-09,0.12696743,0.40596294,-0.13871145,241.0,-0.11443156,0.045616362,0.08932927
0.0,0.0,0.0,0.0,18-45-09,0.13059044,0.4372747,-0.16241503,241.0,-0.11443156,0.045616362,0.08932927
0.0,0.0,0.0,0.0,18-45-09,0.13059044,0.4372747,-0.16241503,241.0,-0.11443156,0.045616362,0.08932927
0.0,0.0,0.0,0.0,18-45-09,0.13059044,0.4372747,-0.16241503,241.0,-0.11443156,0.045616362,0.08932927
0.0,0.0,0.0,0.0,18-45-09,0.13059044,0.4372747,-0.16241503,241.0,-0.11443156,0.045616362,0.08932927
0.0,0.0,0.0,0.0,18-45-09,0.13059044,0.4372747,-0.16241503,241.0,-0.11443156,0.045616362,0.08932927
0.0,0.0,0.0,0.0,18-45-09,0.11153889,0.47769594,-0.16718578,241.0,-0.11443156,0.045616362,0.08932927
0.0,0.0,0.0,0.0,18-45-09,0.09492254,0.52053285,-0.17574644,241.0,-0.11443156,0.045616362,0.08932927
0.0,0.0,0.0,0.0,18-45-09,-0.056397438,0.6046343,-0.30322456,241.0,-0.18773538,0.1647351,0.24143471
0.0,0.0,0.0,0.0,18-45-09,-0.056397438,0.6046343,-0.30322456,241.0,-0.18773538,0.1647351,0.24143471
0.0,0.0,0.0,0.0,18-45-09,-0.056397438,0.6046343,-0.30322456,241.0,-0.18773538,0.1647351,0.24143471
0.0,0.0,0.0,0.0,18-45-09,-0.056397438,0.6046343,-0.30322456,241.0,-0.18773538,0.1647351,0.24143471
0.0,0.0,0.0,0.0,18-45-09,-0.056397438,0.6046343,-0.30322456,241.0,-0.18773538,0.1647351,0.24143471
0.0,0.0,0.0,0.0,18-45-09,-0.050914764,0.6598232,-0.3419671,241.0,-0.18773538,0.1647351,0.24143471
0.0,0.0,0.0,0.0,18-45-09,-0.050914764,0.6598232,-0.3419671,241.0,-0.18773538,0.1647351,0.24143471
0.0,0.0,0.0,0.0,18-45-09,-0.024852753,0.76033545,-0.42750597,241.0,-0.18773538,0.1647351,0.24143471
0.0,0.0,0.0,0.0,18-45-09,-0.024852753,0.76033545,-0.42750597,241.0,-0.18773538,0.1647351,0.24143471
0.0,0.0,0.0,0.0,18-45-09,-0.024852753,0.76033545,-0.42750597,241.0,-0.18773538,0.1647351,0.24143471
0.0,0.0,0.0,0.0,18-45-09,-0.024852753,0.76033545,-0.42750597,241.0,-0.18773538,0.1647351,0.24143471
0.0,0.0,0.0,0.0,18-45-09,-0.024852753,0.76033545,-0.42750597,241.0,-0.18773538,0.1647351,0.24143471
0.0,0.0,0.0,0.0,18-45-09,-0.023835182,0.80558276,-0.4539528,240.0,-0.18773538,0.1647351,0.24143471
0.0,0.0,0.0,0.0,18-45-09,-0.023835182,0.80558276,-0.4539528,240.0,-0.18773538,0.1647351,0.24143471
0.0,0.0,0.0,0.0,18-45-09,-0.023835182,0.80558276,-0.4539528,240.0,-0.18773538,0.1647351,0.24143471
0.0,0.0,0.0,0.0,18-45-09,0.25362015,0.47145414,-0.24232435,240.0,-0.18773538,0.1647351,0.24143471
0.0,0.0,0.0,0.0,18-45-09,0.25362015,0.47145414,-0.24232435,240.0,-0.18773538,0.1647351,0.24143471
0.0,0.0,0.0,0.0,18-45-09,0.26551437,0.51716685,-0.2787652,240.0,-0.18773538,0.1647351,0.24143471
0.0,0.0,0.0,0.0,18-45-09,0.26551437,0.51716685,-0.2787652,240.0,-0.18773538,0.1647351,0.24143471
0.0,0.0,0.0,0.0,18-45-09,0.26551437,0.51716685,-0.2787652,240.0,-0.18773538,0.1647351,0.24143471
0.0,0.0,0.0,0.0,18-45-09,0.26551437,0.51716685,-0.2787652,240.0,-0.18773538,0.1647351,0.24143471
0.0,0.0,0.0,0.0,18-45-09,0.26551437,0.51716685,-0.2787652,240.0,-0.18773538,0.1647351,0.24143471
0.0,0.0,0.0,0.0,18-45-09,0.27460098,0.5558207,-0.30816603,240.0,-0.18773538,0.1647351,0.24143471
0.0,0.0,0.0,0.0,18-45-09,0.2803297,0.5948181,-0.3339715,240.0,-0.07289272,0.23070852,0.176683
0.0,0.0,0.0,0.0,18-45-09,0.3548174,0.27582788,0.009340286,240.0,-0.07289272,0.23070852,0.176683
0.0,0.0,0.0,0.0,18-45-09,0.3548174,0.27582788,0.009340286,240.0,-0.07289272,0.23070852,0.176683
0.0,0.0,0.0,0.0,18-45-09,0.3548174,0.27582788,0.009340286,240.0,-0.07289272,0.23070852,0.176683
0.0,0.0,0.0,0.0,18-45-09,0.3548174,0.27582788,0.009340286,240.0,-0.07289272,0.23070852,0.176683
0.0,0.0,0.0,0.0,18-45-09,0.37449837,0.29731083,-0.021026134,240.0,-0.07289272,0.23070852,0.176683
0.0,0.0,0.0,0.0,18-45-09,0.37449837,0.29731083,-0.021026134,240.0,-0.07289272,0.23070852,0.176683
0.0,0.0,0.0,0.0,18-45-09,0.37449837,0.29731083,-0.021026134,240.0,-0.07289272,0.23070852,0.176683
0.0,0.0,0.0,0.0,18-45-09,0.3809371,0.33403635,-0.04549122,240.0,-0.07289272,0.23070852,0.176683
0.0,0.0,0.0,0.0,18-45-09,0.3809371,0.33403635,-0.04549122,240.0,-0.07289272,0.23070852,0.176683
0.0,0.0,0.0,0.0,18-45-09,0.3809371,0.33403635,-0.04549122,240.0,-0.07289272,0.23070852,0.176683
0.0,0.0,0.0,0.0,18-45-09,0.3809371,0.33403635,-0.04549122,240.0,-0.07289272,0.23070852,0.176683
0.0,0.0,0.0,0.0,18-45-09,0.38485146,0.36426163,-0.0640316,240.0,-0.07289272,0.23070852,0.176683
0.0,0.0,0.0,0.0,18-45-09,0.38485146,0.36426163,-0.0640316,240.0,-0.07289272,0.23070852,0.176683
0.0,0.0,0.0,0.0,18-45-09,0.38485146,0.36426163,-0.0640316,240.0,-0.07289272,0.23070852,0.176683
0.0,0.0,0.0,0.0,18-45-09,0.3842044,0.176157,0.5374317,240.0,-0.07289272,0.23070852,0.176683
0.0,0.0,0.0,0.0,18-45-09,0.3681364,0.19517326,0.5442424,240.0,-0.07289272,0.23070852,0.176683
0.0,0.0,0.0,0.0,18-45-09,0.3681364,0.19517326,0.5442424,240.0,-0.07289272,0.23070852,0.176683
0.0,0.0,0.0,0.0,18-45-09,0.35786486,0.21465087,0.54518604,240.0,-0.07289272,0.23070852,0.176683
0.0,0.0,0.0,0.0,18-45-09,0.35786486,0.21465087,0.54518604,240.0,-0.07289272,0.23070852,0.176683
0.0,0.0,0.0,0.0,18-45-09,0.35786486,0.21465087,0.54518604,240.0,-0.07289272,0.23070852,0.176683
0.0,0.0,0.0,0.0,18-45-09,0.35786486,0.21465087,0.54518604,240.0,-0.07289272,0.23070852,0.176683
0.0,0.0,0.0,0.0,18-45-09,0.33580542,0.25036955,0.55029535,240.0,-0.2402698,-0.30318767,0.09849225
0.0,0.0,0.0,0.0,18-45-09,0.33580542,0.25036955,0.55029535,240.0,-0.2402698,-0.30318767,0.09849225
0.0,0.0,0.0,0.0,18-45-09,0.0061397552,0.086732626,-0.0015630722,240.0,-0.2402698,-0.30318767,0.09849225
0.0,0.0,0.0,0.0,18-45-09,0.0061397552,0.086732626,-0.0015630722,240.0,-0.2402698,-0.30318767,0.09849225
0.0,0.0,0.0,0.0,18-45-09,0.0061397552,0.086732626,-0.0015630722,240.0,-0.2402698,-0.30318767,0.09849225
0.0,0.0,0.0,0.0,18-45-09,0.0061397552,0.086732626,-0.0015630722,240.0,-0.2402698,-0.30318767,0.09849225
0.0,0.0,0.0,0.0,18-45-09,0.0061397552,0.086732626,-0.0015630722,240.0,-0.2402698,-0.30318767,0.09849225
0.0,0.0,0.0,0.0,18-45-09,-0.027265072,0.13568377,0.010287762,240.0,-0.2402698,-0.30318767,0.09849225
0.0,0.0,0.0,0.0,18-45-09,-0.027265072,0.13568377,0.010287762,240.0,-0.2402698,-0.30318767,0.09849225
0.0,0.0,0.0,0.0,18-45-09,-0.027265072,0.13568377,0.010287762,240.0,-0.2402698,-0.30318767,0.09849225
0.0,0.0,0.0,0.0,18-45-09,-0.07400179,0.27145457,-0.0015068054,240.0,-0.2402698,-0.30318767,0.09849225
0.0,0.0,0.0,0.0,18-45-09,-0.07400179,0.27145457,-0.0015068054,240.0,-0.2402698,-0.30318767,0.09849225
0.0,0.0,0.0,0.0,18-45-09,-0.07400179,0.27145457,-0.0015068054,240.0,-0.2402698,-0.30318767,0.09849225
0.0,0.0,0.0,0.0,18-45-09,-0.11540699,0.33888197,0.012646675,240.0,-0.2402698,-0.30318767,0.09849225
0.0,0.0,0.0,0.0,18-45-09,-0.11540699,0.33888197,0.012646675,240.0,-0.2402698,-0.30318767,0.09849225
0.0,0.0,0.0,0.0,18-45-09,-0.11540699,0.33888197,0.012646675,240.0,-0.2402698,-0.30318767,0.09849225
0.0,0.0,0.0,0.0,18-45-09,-0.11540699,0.33888197,0.012646675,240.0,-0.2402698,-0.30318767,0.09849225
0.0,0.0,0.0,0.0,18-45-09,-0.9060974,0.19584012,-0.07820606,240.0,-0.2402698,-0.30318767,0.09849225
0.0,0.0,0.0,0.0,18-45-10,-0.9283023,0.27714682,-0.08783054,240.0,-0.2402698,-0.30318767,0.09849225
0.0,0.0,0.0,0.0,18-45-10,-0.9283023,0.27714682,-0.08783054,240.0,-0.2402698,-0.30318767,0.09849225
0.0,0.0,0.0,0.0,18-45-10,-0.9553189,0.37246394,-0.09668112,240.0,-0.4125338,-0.122371584,0.33367535
0.0,0.0,0.0,0.0,18-45-10,-0.9553189,0.37246394,-0.09668112,240.0,-0.4125338,-0.122371584,0.33367535
0.0,0.0,0.0,0.0,18-45-10,-0.9553189,0.37246394,-0.09668112,240.0,-0.4125338,-0.122371584,0.33367535
0.0,0.0,0.0,0.0,18-45-10,-0.9553189,0.37246394,-0.09668112,240.0,-0.4125338,-0.122371584,0.33367535
0.0,0.0,0.0,0.0,18-45-10,-0.9827728,0.4712472,-0.104831696,240.0,-0.4125338,-0.122371584,0.33367535
0.0,0.0,0.0,0.0,18-45-10,-0.9827728,0.4712472,-0.104831696,240.0,-0.4125338,-0.122371584,0.33367535
0.0,0.0,0.0,0.0,18-45-10,0.028188705,0.6856973,-0.8097377,240.0,-0.4125338,-0.122371584,0.33367535
0.0,0.0,0.0,0.0,18-45-10,0.028188705,0.6856973,-0.8097377,240.0,-0.4125338,-0.122371584,0.33367535
0.0,0.0,0.0,0.0,18-45-10,0.028188705,0.6856973,-0.8097377,240.0,-0.4125338,-0.122371584,0.33367535
0.0,0.0,0.0,0.0,18-45-10,0.028188705,0.6856973,-0.8097377,240.0,-0.4125338,-0.122371584,0.33367535
0.0,0.0,0.0,0.0,18-45-10,0.028188705,0.6856973,-0.8097377,240.0,-0.4125338,-0.122371584,0.33367535
0.0,0.0,0.0,0.0,18-45-10,0.038817883,0.7859459,-0.85334826,240.0,-0.4125338,-0.122371584,0.33367535
0.0,0.0,0.0,0.0,18-45-10,0.038817883,0.7859459,-0.85334826,240.0,-0.4125338,-0.122371584,0.33367535
0.0,0.0,0.0,0.0,18-45-10,0.038817883,0.7859459,-0.85334826,240.0,-0.4125338,-0.122371584,0.33367535
0.0,0.0,0.0,0.0,18-45-10,0.052441597,0.9924623,-0.92914915,240.0,-0.4125338,-0.122371584,0.33367535
0.0,0.0,0.0,0.0,18-45-10,0.052441597,0.9924623,-0.92914915,240.0,-0.4125338,-0.122371584,0.33367535
0.0,0.0,0.0,0.0,18-45-10,0.052441597,0.9924623,-0.92914915,240.0,-0.4125338,-0.122371584,0.33367535
0.0,0.0,0.0,0.0,18-45-10,0.052441597,0.9924623,-0.92914915,240.0,-0.4125338,-0.122371584,0.33367535
0.0,0.0,0.0,0.0,18-45-10,0.0418272,1.108747,-0.95011616,240.0,-0.4125338,-0.122371584,0.33367535
0.0,0.0,0.0,0.0,18-45-10,0.0418272,1.108747,-0.95011616,240.0,-0.4125338,-0.122371584,0.33367535
0.0,0.0,0.0,0.0,18-45-10,0.0418272,1.108747,-0.95011616,240.0,-0.4125338,-0.122371584,0.33367535
0.0,0.0,0.0,0.0,18-45-10,0.5850835,0.22555494,0.37920952,240.0,-0.4125338,-0.122371584,0.33367535
0.0,0.0,0.0,0.0,18-45-10,0.57201385,0.37006998,0.35903358,240.0,-0.50843966,-0.046013422,0.5260979
0.0,0.0,0.0,0.0,18-45-10,0.5527406,0.5109695,0.3490181,240.0,-0.50843966,-0.046013422,0.5260979
0.0,0.0,0.0,0.0,18-45-10,0.5527406,0.5109695,0.3490181,240.0,-0.50843966,-0.046013422,0.5260979
0.0,0.0,0.0,0.0,18-45-10,0.5527406,0.5109695,0.3490181,240.0,-0.50843966,-0.046013422,0.5260979
0.0,0.0,0.0,0.0,18-45-10,0.5527406,0.5109695,0.3490181,240.0,-0.50843966,-0.046013422,0.5260979
0.0,0.0,0.0,0.0,18-45-10,0.5395298,0.6563499,0.3350129,240.0,-0.50843966,-0.046013422,0.5260979
0.0,0.0,0.0,0.0,18-45-10,0.5395298,0.6563499,0.3350129,240.0,-0.50843966,-0.046013422,0.5260979
0.0,0.0,0.0,0.0,18-45-10,0.5395298,0.6563499,0.3350129,240.0,-0.50843966,-0.046013422,0.5260979
0.0,0.0,0.0,0.0,18-45-10,0.79142284,0.24167877,0.4007845,240.0,-0.50843966,-0.046013422,0.5260979
0.0,0.0,0.0,0.0,18-45-10,0.79142284,0.24167877,0.4007845,240.0,-0.50843966,-0.046013422,0.5260979
0.0,0.0,0.0,0.0,18-45-10,0.79142284,0.24167877,0.4007845,240.0,-0.50843966,-0.046013422,0.5260979
0.0,0.0,0.0,0.0,18-45-10,0.79142284,0.24167877,0.4007845,240.0,-0.50843966,-0.046013422,0.5260979
0.0,0.0,0.0,0.0,18-45-10,0.7950673,0.34680504,0.38364744,239.0,-0.50843966,-0.046013422,0.5260979
0.0,0.0,0.0,0.0,18-45-10,0.7950673,0.34680504,0.38364744,239.0,-0.50843966,-0.046013422,0.5260979
0.0,0.0,0.0,0.0,18-45-10,0.7950673,0.34680504,0.38364744,239.0,-0.50843966,-0.046013422,0.5260979
0.0,0.0,0.0,0.0,18-45-10,0.7950673,0.34680504,0.38364744,239.0,-0.50843966,-0.046013422,0.5260979
0.0,0.0,0.0,0.0,18-45-10,0.7931628,0.5411024,0.364954,239.0,-0.50843966,-0.046013422,0.5260979
0.0,0.0,0.0,0.0,18-45-10,0.7931628,0.5411024,0.364954,239.0,-0.50843966,-0.046013422,0.5260979
0.0,0.0,0.0,0.0,18-45-10,0.7909937,0.6324404,0.35935497,239.0,-0.50843966,-0.046013422,0.5260979
0.0,0.0,0.0,0.0,18-45-10,0.7909937,0.6324404,0.35935497,239.0,-0.50843966,-0.046013422,0.5260979
0.0,0.0,0.0,0.0,18-45-10,0.7909937,0.6324404,0.35935497,239.0,-0.50843966,-0.046013422,0.5260979
0.0,0.0,0.0,0.0,18-45-10,0.7909937,0.6324404,0.35935497,239.0,-0.50843966,-0.046013422,0.5260979
0.0,0.0,0.0,0.0,18-45-10,0.7909937,0.6324404,0.35935497,239.0,-0.50843966,-0.046013422,0.5260979
0.0,0.0,0.0,0.0,18-45-10,0.7588496,0.45512038,0.37569952,239.0,-0.21094826,0.010797042,0.4051466
0.0,0.0,0.0,0.0,18-45-10,0.75661564,0.5384343,0.37294006,239.0,-0.21094826,0.010797042,0.4051466
0.0,0.0,0.0,0.0,18-45-10,0.7547374,0.6249468,0.37069035,238.0,-0.21094826,0.010797042,0.4051466
0.0,0.0,0.0,0.0,18-45-10,0.7547374,0.6249468,0.37069035,238.0,-0.21094826,0.010797042,0.4051466
0.0,0.0,0.0,0.0,18-45-10,0.7547374,0.6249468,0.37069035,238.0,-0.21094826,0.010797042,0.4051466
0.0,0.0,0.0,0.0,18-45-10,0.7547374,0.6249468,0.37069035,238.0,-0.21094826,0.010797042,0.4051466
0.0,0.0,0.0,0.0,18-45-10,0.7476549,0.7244635,0.3743801,238.0,-0.21094826,0.010797042,0.4051466
0.0,0.0,0.0,0.0,18-45-10,0.7476549,0.7244635,0.3743801,238.0,-0.21094826,0.010797042,0.4051466
0.0,0.0,0.0,0.0,18-45-10,0.7476549,0.7244635,0.3743801,238.0,-0.21094826,0.010797042,0.4051466
0.0,0.0,0.0,0.0,18-45-10,0.38031197,0.5237841,-0.0581007,238.0,-0.21094826,0.010797042,0.4051466
0.0,0.0,0.0,0.0,18-45-10,0.38031197,0.5237841,-0.0581007,238.0,-0.21094826,0.010797042,0.4051466
0.0,0.0,0.0,0.0,18-45-10,0.38031197,0.5237841,-0.0581007,238.0,-0.21094826,0.010797042,0.4051466
0.0,0.0,0.0,0.0,18-45-10,0.38031197,0.5237841,-0.0581007,238.0,-0.21094826,0.010797042,0.4051466
0.0,0.0,0.0,0.0,18-45-10,0.3650074,0.62497854,-0.04207611,238.0,-0.21094826,0.010797042,0.4051466
0.0,0.0,0.0,0.0,18-45-10,0.3650074,0.62497854,-0.04207611,238.0,-0.21094826,0.010797042,0.4051466
0.0,0.0,0.0,0.0,18-45-10,0.3650074,0.62497854,-0.04207611,238.0,-0.21094826,0.010797042,0.4051466
0.0,0.0,0.0,0.0,18-45-10,0.3527274,0.73652375,-0.027249336,238.0,-0.21094826,0.010797042,0.4051466
0.0,0.0,0.0,0.0,18-45-10,0.35047674,0.8538705,-0.020473003,238.0,-0.21094826,0.010797042,0.4051466
0.0,0.0,0.0,0.0,18-45-10,0.35047674,0.8538705,-0.020473003,238.0,-0.21094826,0.010797042,0.4051466
0.0,0.0,0.0,0.0,18-45-10,0.35047674,0.8538705,-0.020473003,238.0,-0.21094826,0.010797042,0.4051466
0.0,0.0,0.0,0.0,18-45-10,0.35047674,0.8538705,-0.020473003,238.0,-0.21094826,0.010797042,0.4051466
0.0,0.0,0.0,0.0,18-45-10,0.35272312,0.9701681,-0.01632166,237.0,-0.32029316,-0.10465649,0.48272648
0.0,0.0,0.0,0.0,18-45-10,0.35272312,0.9701681,-0.01632166,237.0,-0.32029316,-0.10465649,0.48272648
0.0,0.0,0.0,0.0,18-45-10,-0.27375746,0.2911575,0.05807638,237.0,-0.32029316,-0.10465649,0.48272648
0.0,0.0,0.0,0.0,18-45-10,-0.27375746,0.2911575,0.05807638,237.0,-0.32029316,-0.10465649,0.48272648
0.0,0.0,0.0,0.0,18-45-10,-0.26491594,0.49940166,0.06893444,237.0,-0.32029316,-0.10465649,0.48272648
0.0,0.0,0.0,0.0,18-45-10,-0.26491594,0.49940166,0.06893444,237.0,-0.32029316,-0.10465649,0.48272648
0.0,0.0,0.0,0.0,18-45-10,-0.26491594,0.49940166,0.06893444,237.0,-0.32029316,-0.10465649,0.48272648
0.0,0.0,0.0,0.0,18-45-10,-0.26491594,0.49940166,0.06893444,237.0,-0.32029316,-0.10465649,0.48272648
0.0,0.0,0.0,0.0,18-45-10,-0.26284933,0.5846628,0.07680464,237.0,-0.32029316,-0.10465649,0.48272648
0.0,0.0,0.0,0.0,18-45-10,-0.26284933,0.5846628,0.07680464,237.0,-0.32029316,-0.10465649,0.48272648
0.0,0.0,0.0,0.0,18-45-10,-0.26284933,0.5846628,0.07680464,237.0,-0.32029316,-0.10465649,0.48272648
0.0,0.0,0.0,0.0,18-45-10,-0.26284933,0.5846628,0.07680464,237.0,-0.32029316,-0.10465649,0.48272648
0.0,0.0,0.0,0.0,18-45-10,0.044605732,0.5152391,-0.26859617,237.0,-0.32029316,-0.10465649,0.48272648
0.0,0.0,0.0,0.0,18-45-10,0.044605732,0.5152391,-0.26859617,237.0,-0.32029316,-0.10465649,0.48272648
0.0,0.0,0.0,0.0,18-45-10,0.044605732,0.5152391,-0.26859617,237.0,-0.32029316,-0.10465649,0.48272648
0.0,0.0,0.0,0.0,18-45-10,0.044605732,0.5152391,-0.26859617,237.0,-0.32029316,-0.10465649,0.48272648
0.0,0.0,0.0,0.0,18-45-10,0.038757324,0.5887604,-0.25154305,236.0,-0.32029316,-0.10465649,0.48272648
0.0,0.0,0.0,0.0,18-45-10,0.038757324,0.5887604,-0.25154305,236.0,-0.32029316,-0.10465649,0.48272648
0.0,0.0,0.0,0.0,18-45-10,0.038757324,0.5887604,-0.25154305,236.0,-0.32029316,-0.10465649,0.48272648
0.0,0.0,0.0,0.0,18-45-10,0.04762745,0.66655326,-0.24803925,236.0,-0.32029316,-0.10465649,0.48272648
0.0,0.0,0.0,0.0,18-45-10,0.052859783,0.73390007,-0.24176836,236.0,-0.097938195,-0.067393705,0.37460333
0.0,0.0,0.0,0.0,18-45-10,0.052859783,0.73390007,-0.24176836,236.0,-0.097938195,-0.067393705,0.37460333
0.0,0.0,0.0,0.0,18-45-10,0.050036907,0.7983563,-0.22709656,236.0,-0.097938195,-0.067393705,0.37460333
0.0,0.0,0.0,0.0,18-45-10,0.050036907,0.7983563,-0.22709656,236.0,-0.097938195,-0.067393705,0.37460333
0.0,0.0,0.0,0.0,18-45-10,0.050036907,0.7983563,-0.22709656,236.0,-0.097938195,-0.067393705,0.37460333
0.0,0.0,0.0,0.0,18-45-10,0.5801282,0.5542441,-0.7154083,236.0,-0.097938195,-0.067393705,0.37460333
0.0,0.0,0.0,0.0,18-45-10,0.5801282,0.5542441,-0.7154083,236.0,-0.097938195,-0.067393705,0.37460333
0.0,0.0,0.0,0.0,18-45-10,0.5801282,0.5542441,-0.7154083,236.0,-0.097938195,-0.067393705,0.37460333
0.0,0.0,0.0,0.0,18-45-10,0.55502844,0.7045533,-0.65781784,235.0,-0.097938195,-0.067393705,0.37460333
0.0,0.0,0.0,0.0,18-45-10,0.55502844,0.7045533,-0.65781784,235.0,-0.097938195,-0.067393705,0.37460333
0.0,0.0,0.0,0.0,18-45-10,0.55502844,0.7045533,-0.65781784,235.0,-0.097938195,-0.067393705,0.37460333
0.0,0.0,0.0,0.0,18-45-10,0.55502844,0.7045533,-0.65781784,235.0,-0.097938195,-0.067393705,0.37460333
0.0,0.0,0.0,0.0,18-45-10,0.5673051,0.7914385,-0.6507511,235.0,-0.097938195,-0.067393705,0.37460333
0.0,0.0,0.0,0.0,18-45-10,0.5673051,0.7914385,-0.6507511,235.0,-0.097938195,-0.067393705,0.37460333
0.0,0.0,0.0,0.0,18-45-10,0.5673051,0.7914385,-0.6507511,235.0,-0.097938195,-0.067393705,0.37460333
0.0,0.0,0.0,0.0,18-45-10,0.5673051,0.7914385,-0.6507511,235.0,-0.097938195,-0.067393705,0.37460333
0.0,0.0,0.0,0.0,18-45-10,0.11714697,0.1877712,-0.21820354,235.0,-0.097938195,-0.067393705,0.37460333
0.0,0.0,0.0,0.0,18-45-10,0.11714697,0.1877712,-0.21820354,235.0,-0.097938195,-0.067393705,0.37460333
0.0,0.0,0.0,0.0,18-45-10,0.11714697,0.1877712,-0.21820354,235.0,-0.097938195,-0.067393705,0.37460333
0.0,0.0,0.0,0.0,18-45-10,0.11714697,0.1877712,-0.21820354,235.0,-0.097938195,-0.067393705,0.37460333
0.0,0.0,0.0,0.0,18-45-10,0.12803507,0.2990178,-0.19833899,235.0,-0.097938195,-0.067393705,0.37460333
0.0,0.0,0.0,0.0,18-45-10,0.12803507,0.2990178,-0.19833899,235.0,-0.097938195,-0.067393705,0.37460333
0.0,0.0,0.0,0.0,18-45-10,0.12803507,0.2990178,-0.19833899,235.0,-0.097938195,-0.067393705,0.37460333
0.0,0.0,0.0,0.0,18-45-10,0.12957525,0.39051962,-0.17276955,235.0,-0.2188895,-0.06433938,0.36421862
0.0,0.0,0.0,0.0,18-45-10,0.14141607,0.46887612,-0.16085052,234.0,-0.2188895,-0.06433938,0.36421862
0.0,0.0,0.0,0.0,18-45-10,0.14141607,0.46887612,-0.16085052,234.0,-0.2188895,-0.06433938,0.36421862
0.0,0.0,0.0,0.0,18-45-10,0.16122913,0.5439868,-0.1573863,234.0,-0.2188895,-0.06433938,0.36421862
0.0,0.0,0.0,0.0,18-45-10,0.16122913,0.5439868,-0.1573863,234.0,-0.2188895,-0.06433938,0.36421862
0.0,0.0,0.0,0.0,18-45-10,0.16122913,0.5439868,-0.1573863,234.0,-0.2188895,-0.06433938,0.36421862
0.0,0.0,0.0,0.0,18-45-10,0.12172699,-0.09131265,-0.34768248,234.0,-0.2188895,-0.06433938,0.36421862
0.0,0.0,0.0,0.0,18-45-11,0.12172699,-0.09131265,-0.34768248,234.0,-0.2188895,-0.06433938,0.36421862
0.0,0.0,0.0,0.0,18-45-11,0.12172699,-0.09131265,-0.34768248,234.0,-0.2188895,-0.06433938,0.36421862
0.0,0.0,0.0,0.0,18-45-11,0.12272596,0.026654005,-0.30755186,234.0,-0.2188895,-0.06433938,0.36421862
0.0,0.0,0.0,0.0,18-45-11,0.12272596,0.026654005,-0.30755186,234.0,-0.2188895,-0.06433938,0.36421862
0.0,0.0,0.0,0.0,18-45-11,0.12272596,0.026654005,-0.30755186,234.0,-0.2188895,-0.06433938,0.36421862
0.0,0.0,0.0,0.0,18-45-11,0.12272596,0.026654005,-0.30755186,234.0,-0.2188895,-0.06433938,0.36421862
0.0,0.0,0.0,0.0,18-45-11,0.14777279,0.0882895,-0.31146812,234.0,-0.2188895,-0.06433938,0.36421862
0.0,0.0,0.0,0.0,18-45-11,0.14777279,0.0882895,-0.31146812,234.0,-0.2188895,-0.06433938,0.36421862
0.0,0.0,0.0,0.0,18-45-11,0.14777279,0.0882895,-0.31146812,234.0,-0.2188895,-0.06433938,0.36421862
0.0,0.0,0.0,0.0,18-45-11,0.14777279,0.0882895,-0.31146812,234.0,-0.2188895,-0.06433938,0.36421862
0.0,0.0,0.0,0.0,18-45-11,0.5237274,-0.2689631,-0.13451862,234.0,-0.2188895,-0.06433938,0.36421862
0.0,0.0,0.0,0.0,18-45-11,0.5237274,-0.2689631,-0.13451862,234.0,-0.2188895,-0.06433938,0.36421862
0.0,0.0,0.0,0.0,18-45-11,0.49050856,-0.23175716,-0.08484316,234.0,-0.11382069,-0.24393377,0.13331157
0.0,0.0,0.0,0.0,18-45-11,0.49050856,-0.23175716,-0.08484316,234.0,-0.11382069,-0.24393377,0.13331157
0.0,0.0,0.0,0.0,18-45-11,0.49050856,-0.23175716,-0.08484316,234.0,-0.11382069,-0.24393377,0.13331157
0.0,0.0,0.0,0.0,18-45-11,0.49050856,-0.23175716,-0.08484316,234.0,-0.11382069,-0.24393377,0.13331157
0.0,0.0,0.0,0.0,18-45-11,0.49050856,-0.23175716,-0.08484316,234.0,-0.11382069,-0.24393377,0.13331157
0.0,0.0,0.0,0.0,18-45-11,0.4707837,-0.1949141,-0.049066067,234.0,-0.11382069,-0.24393377,0.13331157
0.0,0.0,0.0,0.0,18-45-11,0.4529767,-0.1485486,-0.01098156,234.0,-0.11382069,-0.24393377,0.13331157
0.0,0.0,0.0,0.0,18-45-11,0.44402504,-0.09711504,0.020180702,234.0,-0.11382069,-0.24393377,0.13331157
0.0,0.0,0.0,0.0,18-45-11,0.44402504,-0.09711504,0.020180702,234.0,-0.11382069,-0.24393377,0.13331157
0.0,0.0,0.0,0.0,18-45-11,0.44402504,-0.09711504,0.020180702,234.0,-0.11382069,-0.24393377,0.13331157
0.0,0.0,0.0,0.0,18-45-11,0.44402504,-0.09711504,0.020180702,234.0,-0.11382069,-0.24393377,0.13331157
0.0,0.0,0.0,0.0,18-45-11,-0.46450567,-1.1763222,0.23670149,234.0,-0.11382069,-0.24393377,0.13331157
0.0,0.0,0.0,0.0,18-45-11,-0.46450567,-1.1763222,0.23670149,234.0,-0.11382069,-0.24393377,0.13331157
0.0,0.0,0.0,0.0,18-45-11,-0.46450567,-1.1763222,0.23670149,234.0,-0.11382069,-0.24393377,0.13331157
0.0,0.0,0.0,0.0,18-45-11,-0.4697404,-1.109066,0.27183914,234.0,-0.11382069,-0.24393377,0.13331157
0.0,0.0,0.0,0.0,18-45-11,-0.4697404,-1.109066,0.27183914,234.0,-0.11382069,-0.24393377,0.13331157
0.0,0.0,0.0,0.0,18-45-11,-0.4697404,-1.109066,0.27183914,234.0,-0.11382069,-0.24393377,0.13331157
0.0,0.0,0.0,0.0,18-45-11,-0.4697404,-1.109066,0.27183914,234.0,-0.11382069,-0.24393377,0.13331157
0.0,0.0,0.0,0.0,18-45-11,-0.48183012,-1.0726027,0.30156946,234.0,-0.11382069,-0.24393377,0.13331157
0.0,0.0,0.0,0.0,18-45-11,-0.48183012,-1.0726027,0.30156946,234.0,-0.11382069,-0.24393377,0.13331157
0.0,0.0,0.0,0.0,18-45-11,-0.48183012,-1.0726027,0.30156946,234.0,-0.11382069,-0.24393377,0.13331157
0.0,0.0,0.0,0.0,18-45-11,-0.48183012,-1.0726027,0.30156946,234.0,-0.11382069,-0.24393377,0.13331157
0.0,0.0,0.0,0.0,18-45-11,0.73629475,-0.57182693,-0.10978508,234.0,-0.19140057,-0.20850359,-0.044450223
0.0,0.0,0.0,0.0,18-45-11,0.73629475,-0.57182693,-0.10978508,234.0,-0.19140057,-0.20850359,-0.044450223
0.0,0.0,0.0,0.0,18-45-11,0.73629475,-0.57182693,-0.10978508,234.0,-0.19140057,-0.20850359,-0.044450223
0.0,0.0,0.0,0.0,18-45-11,0.73629475,-0.57182693,-0.10978508,234.0,-0.19140057,-0.20850359,-0.044450223
0.0,0.0,0.0,0.0,18-45-11,0.70772886,-0.5536399,-0.068835735,234.0,-0.19140057,-0.20850359,-0.044450223
0.0,0.0,0.0,0.0,18-45-11,0.70772886,-0.5536399,-0.068835735,234.0,-0.19140057,-0.20850359,-0.044450223
0.0,0.0,0.0,0.0,18-45-11,0.70772886,-0.5536399,-0.068835735,234.0,-0.19140057,-0.20850359,-0.044450223
0.0,0.0,0.0,0.0,18-45-11,0.68750477,-0.526098,-0.0325346,234.0,-0.19140057,-0.20850359,-0.044450223
0.0,0.0,0.0,0.0,18-45-11,0.6709566,-0.4959333,0.0011744499,235.0,-0.19140057,-0.20850359,-0.044450223
0.0,0.0,0.0,0.0,18-45-11,0.6709566,-0.4959333,0.0011744499,235.0,-0.19140057,-0.20850359,-0.044450223
0.0,0.0,0.0,0.0,18-45-11,0.6395111,-0.4683311,0.051454544,235.0,-0.19140057,-0.20850359,-0.044450223
0.0,0.0,0.0,0.0,18-45-11,0.6395111,-0.4683311,0.051454544,235.0,-0.19140057,-0.20850359,-0.044450223
0.0,0.0,0.0,0.0,18-45-11,0.6395111,-0.4683311,0.051454544,235.0,-0.19140057,-0.20850359,-0.044450223
0.0,0.0,0.0,0.0,18-45-11,0.5449586,0.30057955,-0.22796726,235.0,-0.19140057,-0.20850359,-0.044450223
0.0,0.0,0.0,0.0,18-45-11,0.5449586,0.30057955,-0.22796726,235.0,-0.19140057,-0.20850359,-0.044450223
0.0,0.0,0.0,0.0,18-45-11,0.5449586,0.30057955,-0.22796726,235.0,-0.19140057,-0.20850359,-0.044450223
0.0,0.0,0.0,0.0,18-45-11,0.5463829,0.36240315,-0.19801617,235.0,-0.19140057,-0.20850359,-0.044450223
0.0,0.0,0.0,0.0,18-45-11,0.5463829,0.36240315,-0.19801617,235.0,-0.19140057,-0.20850359,-0.044450223
0.0,0.0,0.0,0.0,18-45-11,0.5463829,0.36240315,-0.19801617,235.0,-0.19140057,-0.20850359,-0.044450223
0.0,0.0,0.0,0.0,18-45-11,0.5463829,0.36240315,-0.19801617,235.0,-0.19140057,-0.20850359,-0.044450223
0.0,0.0,0.0,0.0,18-45-11,0.54693604,0.37698817,-0.19109297,236.0,-0.19140057,-0.20850359,-0.044450223
0.0,0.0,0.0,0.0,18-45-11,0.54693604,0.37698817,-0.19109297,236.0,-0.19140057,-0.20850359,-0.044450223
0.0,0.0,0.0,0.0,18-45-11,0.54693604,0.37698817,-0.19109297,236.0,-0.19140057,-0.20850359,-0.044450223
0.0,0.0,0.0,0.0,18-45-11,0.5220289,0.37540936,-0.16204739,236.0,-0.041738592,-0.12053899,-0.15379511
0.0,0.0,0.0,0.0,18-45-11,0.25928926,-1.0838888,-0.4546523,236.0,-0.041738592,-0.12053899,-0.15379511
0.0,0.0,0.0,0.0,18-45-11,0.25928926,-1.0838888,-0.4546523,236.0,-0.041738592,-0.12053899,-0.15379511
0.0,0.0,0.0,0.0,18-45-11,0.25932932,-1.1056087,-0.46596575,236.0,-0.041738592,-0.12053899,-0.15379511
0.0,0.0,0.0,0.0,18-45-11,0.25932932,-1.1056087,-0.46596575,236.0,-0.041738592,-0.12053899,-0.15379511
0.0,0.0,0.0,0.0,18-45-11,0.25932932,-1.1056087,-0.46596575,236.0,-0.041738592,-0.12053899,-0.15379511
0.0,0.0,0.0,0.0,18-45-11,0.25932932,-1.1056087,-0.46596575,236.0,-0.041738592,-0.12053899,-0.15379511
0.0,0.0,0.0,0.0,18-45-11,0.2607131,-1.1306908,-0.4805131,236.0,-0.041738592,-0.12053899,-0.15379511
0.0,0.0,0.0,0.0,18-45-11,0.2607131,-1.1306908,-0.4805131,236.0,-0.041738592,-0.12053899,-0.15379511
0.0,0.0,0.0,0.0,18-45-11,0.2543192,-1.1968608,-0.50621843,237.0,-0.041738592,-0.12053899,-0.15379511
0.0,0.0,0.0,0.0,18-45-11,0.2543192,-1.1968608,-0.50621843,237.0,-0.041738592,-0.12053899,-0.15379511
0.0,0.0,0.0,0.0,18-45-11,0.2543192,-1.1968608,-0.50621843,237.0,-0.041738592,-0.12053899,-0.15379511
0.0,0.0,0.0,0.0,18-45-11,0.2543192,-1.1968608,-0.50621843,237.0,-0.041738592,-0.12053899,-0.15379511
0.0,0.0,0.0,0.0,18-45-11,0.2543192,-1.1968608,-0.50621843,237.0,-0.041738592,-0.12053899,-0.15379511
0.0,0.0,0.0,0.0,18-45-11,0.40554428,-0.4158535,-0.45713806,237.0,-0.041738592,-0.12053899,-0.15379511
0.0,0.0,0.0,0.0,18-45-11,0.40554428,-0.4158535,-0.45713806,237.0,-0.041738592,-0.12053899,-0.15379511
0.0,0.0,0.0,0.0,18-45-11,0.40554428,-0.4158535,-0.45713806,237.0,-0.041738592,-0.12053899,-0.15379511
0.0,0.0,0.0,0.0,18-45-11,0.41633224,-0.44030786,-0.48187637,237.0,-0.041738592,-0.12053899,-0.15379511
